acc_x, acc_y, angular_z, stamp, 
-0.021600805938601357, -1.1281828109931493, -1.0118451649999283, 667203000000.0
-0.033943736222007664, -1.1578589402139887, -1.0149181933026714, 667208000000.0
-0.03160006315330492, -1.1377202553807018, -1.0183276141134099, 667213000000.0
-0.0028451511681435865, -1.1434404783304697, -1.020905019382347, 667218000000.0
-0.013477838325897443, -1.1666683134191982, -1.0239283841601354, 667223000000.0
-0.008771914279020925, -1.1644434734330757, -1.0261760133960536, 667228000000.0
0.008832162659711582, -1.1587470444497558, -1.0285816317872751, 667233000000.0
-0.025771926524706897, -1.13280943705468, -1.030970536785986, 667238000000.0
0.011945443281642756, -1.1390346916519738, -1.0328876285117863, 667243000000.0
0.04153672751324716, -1.157376974372428, -1.0351501920334631, 667248000000.0
0.019777772140072807, -1.1764575887051931, -1.037304886521549, 667253000000.0
0.002380580123958032, -1.1301376898945834, -1.0399071407614229, 667258000000.0
-0.009764422390694291, -1.1628627175115844, -1.0425595763160023, 667263000000.0
-0.09009809600023531, -1.1480116269961758, -1.0459340550673129, 667268000000.0
-0.057497441228018836, -1.179302397205109, -1.050067840012026, 667273000000.0
-0.06079395841038558, -1.2231074704091505, -1.05432295927473, 667278000000.0
-0.02688927740370419, -1.2008253431533784, -1.0592006414922668, 667283000000.0
-0.04253033368503607, -1.2183938969910364, -1.064294582732256, 667288000000.0
-0.023424892231266536, -1.18046902507615, -1.0691217206439838, 667293000000.0
0.000544167931757566, -1.205044285861254, -1.0745331932214388, 667298000000.0
-0.03200414240939667, -1.2106980111509638, -1.0788140056994047, 667303000000.0
0.6976866496417716, -1.1290168933889762, -1.0820244653263362, 667308000000.0
0.4171779943371565, -1.367830522709717, -1.0782093800411297, 667313000000.0
-1.1213826202517698, -1.2479867762813048, -1.0781777376101807, 667318000000.0
1.0708183098046673, -1.21461093442047, -1.0756818863978441, 667323000000.0
-0.07852983273173152, -1.194517519569177, -1.0698364742185145, 667328000000.0
-1.1876779117673526, -1.1456153182502424, -1.065064602599396, 667333000000.0
1.2078681842558203, -1.2119115049721325, -1.0640332481416026, 667338000000.0
0.02904794697025124, -1.2217518597753454, -1.0581250853257338, 667343000000.0
0.06488396632780825, -1.166682545568, -1.050428020786616, 667348000000.0
0.07653495227783477, -1.1593300025186821, -1.0454229092028342, 667353000000.0
0.05953875008847616, -1.12948578202547, -1.040140959117924, 667358000000.0
0.0009202086642661512, -1.1180917918222866, -1.0356634912786307, 667363000000.0
-0.06122712088429281, -1.1143308232623625, -1.0315619680500585, 667368000000.0
0.06175663897266112, -1.142630882341251, -1.0272069554193013, 667373000000.0
0.14546216423901953, -1.353241995490582, -1.0226268088374297, 667378000000.0
0.13365152931498517, -1.0737138621826077, -1.0179734817849952, 667383000000.0
0.11837833482166223, -1.0769038856528181, -1.0120296982896022, 667388000000.0
0.08565973402532798, -1.09380697398524, -1.0056987950402674, 667393000000.0
0.02003829636729508, -1.1259302765271744, -1.0000210163704304, 667398000000.0
0.056849491991219234, -1.1238275553983321, -0.9938975886660083, 667403000000.0
0.036355740604670554, -1.088694069151632, -0.9893357229259447, 667408000000.0
0.04552745415689771, -1.0791582145312204, -0.9857131614626004, 667413000000.0
0.018027604324832754, -1.116189437043729, -0.9831334573262936, 667418000000.0
0.03926930924259201, -1.0682887726998673, -0.9824285232388389, 667423000000.0
0.09745205813516103, -1.0078424467014098, -0.9816824208264293, 667428000000.0
0.055616015200050495, -1.0446230002179373, -0.9824383580194337, 667433000000.0
0.06825580810066101, -1.0855874516954793, -0.9841410843221272, 667438000000.0
0.04763892443467073, -1.0935834414494794, -0.9862095498098895, 667443000000.0
0.06831648501191856, -1.06500804667929, -0.9884906613397063, 667448000000.0
0.05022025464385275, -1.10944950973427, -0.991851053703639, 667453000000.0
0.04528454389605982, -1.1193630149118459, -0.9948527172572447, 667458000000.0
0.05776754206322597, -1.131658215656215, -0.9973274885279693, 667463000000.0
0.06162168298049559, -1.1249946911243518, -1.000352399794443, 667468000000.0
0.07439908170595266, -1.0816321483790945, -1.0030077718443497, 667473000000.0
0.03967849307141329, -1.1023111901166014, -1.0056139869973442, 667478000000.0
0.06807197907501168, -1.0818582698174481, -1.0062210704576156, 667483000000.0
0.06548206380033664, -1.0835943275606192, -1.0079574778723475, 667488000000.0
0.08334850627824326, -1.11857512632193, -1.008056467030158, 667493000000.0
0.0509295608346227, -1.1091326561066122, -1.007664994259266, 667498000000.0
0.07089196297852479, -1.101119949182816, -1.0070883380072524, 667503000000.0
0.08163802405980905, -1.0969974685819648, -1.0062929550529547, 667508000000.0
0.07927690074981221, -1.1108104399381982, -1.0050616778536334, 667513000000.0
0.07565840165307403, -1.096182260323844, -1.0035377926613087, 667518000000.0
0.08704414477932973, -1.0738120115504841, -1.0017446815551403, 667523000000.0
0.05881968114600079, -1.0601430610940892, -1.0002659320043996, 667528000000.0
0.09473394049994646, -1.0665168782521235, -0.9987574917061675, 667533000000.0
0.06134999105655811, -1.1178862963496738, -0.9972345533659216, 667538000000.0
0.07422079186110707, -1.0829351250620813, -0.9962023942018432, 667543000000.0
0.07703603335330608, -1.0667678477951996, -0.9951138698627798, 667548000000.0
0.09779221891903866, -1.0993771462612008, -0.9945349446843987, 667553000000.0
0.04907967066371858, -1.0669175928187615, -0.9947375598950644, 667558000000.0
0.06295207123726315, -1.0969335005686487, -0.9947722961821461, 667563000000.0
0.09893435247084933, -1.0936889412607635, -0.9951681549613067, 667568000000.0
0.09888127945378, -1.0817887063025686, -0.995498199033999, 667573000000.0
0.11352950601074586, -1.0992385482810723, -0.9953649995877968, 667578000000.0
0.028337161418232334, -1.0652414450698007, -0.9954582904378232, 667583000000.0
0.08783734414889507, -1.0721416756183721, -0.9953118030218148, 667588000000.0
0.07748471000343773, -1.058326432333363, -0.9953605782813302, 667593000000.0
0.09558136742202938, -1.0649506658595322, -0.9949231533102556, 667598000000.0
0.11086203203853724, -1.0750907479640752, -0.9949784378983426, 667603000000.0
0.06438128964725942, -1.0487986583261206, -0.9944041109721817, 667608000000.0
0.1211830605274082, -1.0356325458489193, -0.9940405021905706, 667613000000.0
0.08224785194379473, -1.1062136244120169, -0.9938146688564551, 667618000000.0
0.046514867976049645, -1.0789118098831394, -0.993843835290502, 667623000000.0
0.1170071742100689, -1.099104217111933, -0.9933578181014965, 667628000000.0
0.11129731280708414, -1.0751480664081217, -0.992953101365391, 667633000000.0
0.05153366722655354, -1.0517849521256306, -0.9923510326670446, 667638000000.0
0.11258532643763501, -1.063906342786732, -0.9918514162776361, 667643000000.0
0.08518243679688565, -1.114300239354381, -0.9907375082016361, 667648000000.0
0.09205757670472418, -1.0285574090726437, -0.9899111335700416, 667653000000.0
0.09796133608032133, -1.112284438249759, -0.988738455785987, 667658000000.0
0.0781246212332087, -1.0559074176775878, -0.987243721692642, 667663000000.0
0.14214849431714663, -1.1287285399887041, -0.9860846198577349, 667668000000.0
0.058930515727433345, -1.0455865142704548, -0.9844700872653082, 667673000000.0
0.12276904816167493, -1.1068214169783124, -0.9827529004932203, 667678000000.0
0.07483831719715144, -1.0147151652673194, -0.9808718062572294, 667683000000.0
0.09967584742253033, -1.1199427145485257, -0.978777228054268, 667688000000.0
0.05767179895161563, -1.0623213815227146, -0.9773661061561916, 667693000000.0
0.13081306828411488, -1.05237033676161, -0.9752298298841108, 667698000000.0
0.09016008228481112, -0.9790556164397699, -0.9731396628491044, 667703000000.0
-0.0038703468622528804, -0.9433816250950455, -0.971506480534659, 667708000000.0
-0.1664957719402802, -0.9606914969716682, -0.9715526377334773, 667713000000.0
-0.0003195728471624207, -1.018253909390041, -0.9721429700831254, 667718000000.0
0.08896898208362809, -1.0465711441343637, -0.9733104878338619, 667723000000.0
0.12353830352884833, -1.0050072726942056, -0.9741112950124574, 667728000000.0
0.07880520816266344, -1.045182565586965, -0.9749509456936726, 667733000000.0
0.08532193820900982, -0.9946984982851518, -0.9760316208061586, 667738000000.0
0.09818891907523648, -1.0464446332844517, -0.9773944020657189, 667743000000.0
0.06328498694838344, -1.0943369557509812, -0.9776722870902135, 667748000000.0
0.04936569838426366, -1.0804796083432353, -0.9788508697628997, 667753000000.0
0.0458705812418987, -1.0452071578458064, -0.9793428495160311, 667758000000.0
0.03395322044250966, -1.0936558941159014, -0.9806129011842787, 667763000000.0
0.08230619960702668, -1.040459208833591, -0.9815423064180653, 667768000000.0
0.09254813244211749, -1.0421303493619012, -0.98252092199592, 667773000000.0
0.07015009520367331, -1.066533222672747, -0.9830700765942147, 667778000000.0
0.052578473268410066, -1.0599037071634902, -0.9840213704210542, 667783000000.0
0.07373252089744804, -1.0573833748721089, -0.9843186988140097, 667788000000.0
0.0693210528995628, -1.0110191353667484, -0.9854010077368839, 667793000000.0
0.08784726419827761, -1.1221955364155187, -0.9859543088415458, 667798000000.0
0.10315201845262105, -1.012433943464868, -0.9866937675970563, 667803000000.0
0.07594537613956243, -1.0679824269044575, -0.9874312609865067, 667808000000.0
0.08284565383743372, -1.0451435612395321, -0.9880485132911115, 667813000000.0
0.08634835910943435, -1.0703513420348099, -0.9888346471636515, 667818000000.0
0.0952498151887279, -1.032672178276562, -0.9893230230591028, 667823000000.0
0.08490531824021784, -1.060762059702266, -0.9900521087546358, 667828000000.0
0.06000450735335107, -1.05320473494836, -0.9908542259141719, 667833000000.0
0.06555018304868361, -1.049520946282544, -0.9912678997548283, 667838000000.0
0.07889587870405859, -1.0848158378417423, -0.9916462579984081, 667843000000.0
0.06569451877627865, -1.0414473816053338, -0.9925464920415416, 667848000000.0
0.08097939153811962, -1.0610587157695537, -0.9927545877979087, 667853000000.0
0.0941431558485669, -1.0362840575138306, -0.9933233812629353, 667858000000.0
0.0720981129250762, -1.0885146703853006, -0.9931414259780224, 667863000000.0
0.08764073782203899, -1.0677471419111124, -0.9939186513674219, 667868000000.0
0.08500555419609429, -1.0881100467476474, -0.9942165403537087, 667873000000.0
0.09613440418449662, -1.0848981507885316, -0.9947868664993856, 667878000000.0
0.04516717447562288, -1.0697150256374244, -0.9947204428773756, 667883000000.0
0.04682508501733078, -1.073073915311276, -0.994751904153417, 667888000000.0
0.075964199884027, -1.0590135801812874, -0.9952443951343546, 667893000000.0
0.07408700296214374, -1.0563497921726832, -0.9952552152818935, 667898000000.0
0.08650425606019402, -0.9967133763694062, -0.9954358277867215, 667903000000.0
0.04894770442552909, -1.0423243250412257, -0.9953844662621844, 667908000000.0
0.08445509471578912, -1.091562198161461, -0.9954323795906284, 667913000000.0
0.06319327643927543, -1.0964759008344802, -0.9957046467941338, 667918000000.0
0.08919826242063723, -1.0642383520394365, -0.9951268443951415, 667923000000.0
0.09866617737332779, -1.062806073094938, -0.9952486819380192, 667928000000.0
0.0910595243573843, -1.0980269830049598, -0.9955462099089388, 667933000000.0
0.06429739528273659, -1.0721036808926254, -0.9956994313994222, 667938000000.0
0.056231652550645196, -1.0521303050305857, -0.9954076134823493, 667943000000.0
0.07745380245770968, -1.097366163757186, -0.9956107930847578, 667948000000.0
0.09644166326572592, -1.0515364700064544, -0.9956749987733325, 667953000000.0
0.059723690611902, -1.0523193625266958, -0.9955341120088633, 667958000000.0
0.07227365114759246, -1.0645528119032073, -0.9958197387546346, 667963000000.0
0.08095961399719828, -1.0878224639903018, -0.9962004660122408, 667968000000.0
0.1055154501877277, -1.0618753134097036, -0.996064737475981, 667973000000.0
0.08732260195602601, -1.0563772308997286, -0.9965764284285731, 667978000000.0
0.07916816341682455, -1.0643495151132907, -0.9963257173668455, 667983000000.0
0.09034491399429012, -1.0292902937551707, -0.996416430437894, 667988000000.0
0.05089638103493942, -1.079890788308328, -0.9966170771445361, 667993000000.0
0.09458634588240225, -1.0640781485479403, -0.9965743426274677, 667998000000.0
0.07225829997713452, -1.072453819302383, -0.996888209241429, 668003000000.0
0.05408763784605948, -1.080381137697733, -0.9967235284060241, 668008000000.0
0.03903276771827018, -1.0547760676907967, -0.9966788707242434, 668013000000.0
0.06047458831326997, -1.0507374067285722, -0.9968038366893082, 668018000000.0
0.07421950269940876, -1.0620708553908917, -0.9970381480115823, 668023000000.0
0.07454265921141298, -1.0751196791629816, -0.9968263194042426, 668028000000.0
0.05950172590029752, -1.078385381324665, -0.9970992050182329, 668033000000.0
0.07718680425350355, -1.0633648180780728, -0.9971175456086463, 668038000000.0
0.08919620988941714, -1.091780291409509, -0.9967519977613397, 668043000000.0
0.08621877519595814, -1.0425154224004183, -0.9971106606441079, 668048000000.0
0.05853206251831982, -1.0344781769259837, -0.9969190792465376, 668053000000.0
0.046956041412547056, -1.07926072078589, -0.9966962741842763, 668058000000.0
0.07808410801047784, -1.0448110473446375, -0.9960596227678118, 668063000000.0
0.05712014926111891, -1.0948735612295208, -0.9966796722974703, 668068000000.0
0.0623984377605898, -1.0723169187397228, -0.9967450655761175, 668073000000.0
0.06903099717685125, -1.0771666907842088, -0.9967781719534281, 668078000000.0
0.06861230285291706, -1.0824935005846026, -0.9967382637850601, 668083000000.0
0.055953296930432314, -1.0743874679599439, -0.9969373001827571, 668088000000.0
0.06437966017426348, -1.0542092544768589, -0.9963724254989946, 668093000000.0
0.05168183015385094, -1.0500341545239695, -0.9966960509264021, 668098000000.0
0.05156994929413082, -1.0884515736100189, -0.9969804638517111, 668103000000.0
0.0768786498108674, -1.0691848748243769, -0.9973315708047561, 668108000000.0
0.055176863100701794, -1.0557448271542755, -0.9968702579090849, 668113000000.0
0.024072594294124953, -1.08679753725753, -0.9968839075782736, 668118000000.0
0.061052724475364806, -1.0780698257686276, -0.9967746839735298, 668123000000.0
0.05336521319581769, -1.0896420578877486, -0.9971747518553886, 668128000000.0
0.0401063216761529, -1.0782869306321852, -0.9962308376772261, 668133000000.0
0.05474686534607675, -1.058771538060044, -0.996987887823252, 668138000000.0
0.0028167912911010035, -1.0805847981524574, -0.9965023550438478, 668143000000.0
0.024107371087759722, -1.0913497869865512, -0.9964921847810562, 668148000000.0
0.06591110963500267, -1.090017109889294, -0.9965264590698735, 668153000000.0
0.07257852994399501, -1.1098476938754043, -0.9961797034207125, 668158000000.0
0.05925801732065997, -1.069757809676785, -0.9961148604657343, 668163000000.0
0.04297332422141138, -1.0714830416854177, -0.9958459863828614, 668168000000.0
0.06364349430865615, -1.0722943256934996, -0.9957002977763433, 668173000000.0
0.054072539193596905, -1.0792033429290084, -0.9957896995380822, 668178000000.0
0.049355227466558176, -1.0978481485194678, -0.9957536383097514, 668183000000.0
0.02892911465764693, -1.0721024735200309, -0.9957545384877725, 668188000000.0
0.06550216220687244, -1.0933781647622414, -0.995961528465522, 668193000000.0
0.05460702703930233, -1.09895077732415, -0.9961578544891351, 668198000000.0
0.033930587476336684, -1.090567658430245, -0.9958910117520394, 668203000000.0
0.02673093841601646, -1.0678133618610102, -0.9961730182034434, 668208000000.0
0.020243300066177018, -1.0763644485256667, -0.9963501818667231, 668213000000.0
0.05832136045656326, -1.1154012546758993, -0.9964943955182325, 668218000000.0
0.022262095345130642, -1.0640042076147342, -0.9966194043339724, 668223000000.0
0.0174876068069989, -1.0844784121080764, -0.9966489484218117, 668228000000.0
0.04519284491721702, -1.087341460312926, -0.9960076257790189, 668233000000.0
0.007538415436609706, -1.0696571736434768, -0.9963654134238562, 668238000000.0
0.010059288844678774, -1.094751623150466, -0.9957190800202196, 668243000000.0
0.02329865911412984, -1.0803700279640243, -0.9958741184776507, 668248000000.0
0.0532457772364686, -1.1069476633965722, -0.9956338214367708, 668253000000.0
0.028052989920975865, -1.1131353092874692, -0.9950659108952304, 668258000000.0
0.04541976899106864, -1.1325492116322822, -0.9952412738140335, 668263000000.0
0.04634330060869926, -1.0900165065250669, -0.9949028508191241, 668268000000.0
0.02273937218279519, -1.091275030893596, -0.994588788102265, 668273000000.0
0.04013600341167203, -1.0813440187230838, -0.9952177184119674, 668278000000.0
0.005783144185738338, -1.1011832857833053, -0.9950552288943324, 668283000000.0
0.014003855067112948, -1.106799426083242, -0.994920099149104, 668288000000.0
0.017037644376830936, -1.1414438332974794, -0.9948466455891662, 668293000000.0
0.028274870341335204, -1.078582559253392, -0.9943942201799143, 668298000000.0
0.0437573979652871, -1.1056689809388618, -0.9952207911855787, 668303000000.0
0.045282866539076094, -1.0717277627336705, -0.9952168834024575, 668308000000.0
0.0608517202642297, -1.098687725354444, -0.995020457324907, 668313000000.0
0.006411538793857955, -1.131818834240401, -0.9949924255914359, 668318000000.0
0.0047226324047295945, -1.0916716739035652, -0.9955533310588113, 668323000000.0
0.014304004725465449, -1.1178129730354007, -0.9948301297989831, 668328000000.0
0.031907425853089824, -1.1101407338466895, -0.9956761423153704, 668333000000.0
0.0382011840747791, -1.1426544219144907, -0.9953890055973351, 668339000000.0
-0.002992218482425032, -1.1251875076159334, -0.9949441027428325, 668344000000.0
0.02723425889093451, -1.1292553691327412, -0.9947183524676841, 668349000000.0
0.011269511272650686, -1.112939009819345, -0.9949653762434891, 668354000000.0
-0.7822746391701109, -1.0412747178401314, -0.9975641479527251, 668359000000.0
0.019988722045512004, -1.0599598916682476, -1.0009259332003841, 668364000000.0
0.630070294343776, -1.1551708936253886, -1.0051847667473297, 668369000000.0
-0.7057427670680407, -1.1048810070624606, -1.0081953203296976, 668374000000.0
-0.00404288493905482, -1.0986540039070436, -1.012605938194584, 668379000000.0
0.03644828726170253, -1.0764316752780592, -1.0177242517367673, 668384000000.0
0.23220814492787206, -1.2154336302309436, -1.0207075661759635, 668389000000.0
-0.2875964172094335, -1.1543538294242244, -1.024418209614796, 668394000000.0
-0.05072801854339953, -1.129682713655444, -1.0275823741051653, 668399000000.0
-0.02386508289711876, -1.1011763077553975, -1.0308418840121205, 668404000000.0
-0.04140870172748345, -1.1549413026891833, -1.0335674469331086, 668409000000.0
-0.029425581263778904, -1.1583795457602089, -1.0359772952491035, 668414000000.0
-0.015105806584717933, -1.15322755141509, -1.039239263478443, 668419000000.0
-0.031010907042362153, -1.1618975223730192, -1.0410383890957682, 668424000000.0
-0.01504396178959494, -1.1573974109038156, -1.043290773637072, 668429000000.0
-0.014765884958906718, -1.1636451705955704, -1.0453319754129535, 668434000000.0
0.005189909458245986, -1.1716766075914884, -1.0469934711462467, 668439000000.0
-0.0466879253999498, -1.1645211924992127, -1.049105277522276, 668444000000.0
-0.037472364089876996, -1.1499867906359442, -1.050648724430448, 668449000000.0
0.0005387760461143636, -1.1725050243061708, -1.052279846484293, 668454000000.0
0.1441784183017823, -1.222115133588921, -1.053208821545605, 668459000000.0
-0.27518551465003693, -1.071368141359082, -1.0547090873369793, 668464000000.0
-0.005271976285842996, -1.201695749028184, -1.057006358975277, 668469000000.0
0.07699287691527552, -1.1783042339111311, -1.0590702259231333, 668474000000.0
0.11170579372940616, -1.2320267604232225, -1.0596721404186404, 668479000000.0
-0.2812257863091677, -1.1253196209202656, -1.0619828225290115, 668484000000.0
0.026596453939027834, -1.2266719118210607, -1.0643414171615093, 668489000000.0
0.1668569820421267, -1.2612515546004879, -1.0646266324060705, 668494000000.0
0.876389579121512, -1.141463173076964, -1.0638837855566736, 668499000000.0
-0.034806789593154155, -1.2517079846288548, -1.0577846113868907, 668504000000.0
-1.0499495950087585, -1.1421256757000642, -1.0575495990892008, 668509000000.0
1.1157968317613838, -1.0811354288600847, -1.0529707128889874, 668514000000.0
-0.20622477340240775, -1.2494305012292262, -1.0469892509447243, 668519000000.0
-1.0137854623683302, -1.197663710040372, -1.0436106635717133, 668524000000.0
1.0944637609868924, -1.1815430973923982, -1.0422039232708606, 668529000000.0
-0.13469845255517418, -1.1673086095851746, -1.0375154079978828, 668534000000.0
-0.008735876465902417, -1.2048329769412873, -1.033544977414142, 668539000000.0
-0.9015931806070269, -1.129046724880842, -1.034404546869207, 668544000000.0
0.8554787577385585, -1.2072459653370227, -1.0311312468242353, 668549000000.0
-0.03120797027042044, -1.1317745309291631, -1.027711399755778, 668554000000.0
-0.7177141449521319, -1.1154155149449207, -1.0249271076210187, 668559000000.0
0.5040126466123023, -1.1311672677816331, -1.0259874418961754, 668564000000.0
0.20861495910062297, -1.1367906647895667, -1.0237267771228657, 668569000000.0
-0.03539587705232759, -1.1995088440906003, -1.0208347386587435, 668574000000.0
-0.700661171558258, -1.157807440493406, -1.0189261851256965, 668579000000.0
0.6171776134159839, -1.1137072050064851, -1.0196232938663292, 668584000000.0
-0.006406491744382788, -1.1589766155539214, -1.0169717669647549, 668589000000.0
-0.044240055157881306, -1.1467139099968193, -1.0148425845034155, 668594000000.0
-0.8297784824166284, -1.1267147246168423, -1.014160267031933, 668599000000.0
0.8118877804125415, -1.1404564742203323, -1.0143873339790315, 668604000000.0
-0.040226524071707376, -1.1786239815513895, -1.0128734146285507, 668609000000.0
-0.02939273252935014, -1.1770908824520099, -1.0111355291143935, 668614000000.0
-0.6578716254264596, -1.152824322402526, -1.0098946722853142, 668619000000.0
0.6182058805468517, -1.117056115475756, -1.0101241159058885, 668624000000.0
-0.015171474797730027, -1.14346493081705, -1.0081747054927428, 668629000000.0
-0.0632294187076096, -1.1658115862320861, -1.0063634966714028, 668634000000.0
-0.6508094429662727, -1.1628221881638243, -1.0051488815021072, 668639000000.0
0.5958006607080927, -1.0968444877243826, -1.0057312353478354, 668644000000.0
-0.04991435409308953, -1.110973518201976, -1.004236857712623, 668649000000.0
-0.05809676490748934, -1.1470159243818279, -1.003106374899997, 668654000000.0
-0.0577632841032021, -1.1213245453338307, -1.0019059332100075, 668659000000.0
-0.7565425465563835, -1.1047848744711708, -1.0023670227267991, 668664000000.0
0.7243225997584398, -1.1449775347804856, -1.002585733213124, 668669000000.0
-0.08594084115749759, -1.1009685240665086, -1.0017245951876186, 668674000000.0
-0.05364434200475904, -1.1099133739465834, -1.0003867815372178, 668679000000.0
-0.017321178278297066, -1.1316587192708019, -0.9991389564212578, 668684000000.0
-0.022133734164051642, -1.1368485244205773, -0.9984413068462765, 668689000000.0
-0.03456665190337715, -1.1714392698494653, -0.9988541267900387, 668694000000.0
0.012018895879037594, -1.0880184616441877, -0.9980047556148103, 668699000000.0
-0.09408281696082361, -1.1515419250994154, -0.9971148579359596, 668704000000.0
-0.06529817229593422, -1.1376621259845086, -0.9958712975554305, 668709000000.0
-0.07012755649634858, -1.1352002855665655, -0.9955530823214283, 668714000000.0
-0.1192989083940543, -1.1633984130333883, -0.9961260096184728, 668719000000.0
0.19674446350095262, -1.014714929830708, -0.99556379243192, 668724000000.0
-0.13896925382846861, -1.1559059970722376, -0.99451646920138, 668729000000.0
-0.08527777665063854, -1.1233334197222793, -0.994141460947925, 668734000000.0
-0.07355321317310161, -1.1174952478608444, -0.993181733992861, 668739000000.0
-0.020162405370901196, -1.1273189351698023, -0.9928428155879102, 668744000000.0
-0.6065533922428995, -1.1367178645848692, -0.9926993420809015, 668749000000.0
0.5512507341113607, -1.1937643423580189, -0.9937894180350144, 668754000000.0
-0.026048016258501592, -0.9871798803341061, -0.9930773472395664, 668759000000.0
-0.11804260465516483, -1.1736030527091532, -0.9926662716772365, 668764000000.0
-0.05036394554620305, -1.143152057966204, -0.9920509260611398, 668769000000.0
-0.02791427404430497, -1.1201755223121403, -0.9916640019523554, 668774000000.0
-0.06670502626528063, -1.122038090476463, -0.9913077334041368, 668779000000.0
-0.036523814062417, -1.145968949437663, -0.9914573240425106, 668784000000.0
-0.1740893644221795, -1.1542503281233016, -0.9919498145990093, 668789000000.0
0.1171890972802149, -1.0790025936417906, -0.992526870056751, 668794000000.0
-0.090319366242461, -1.0713511793676065, -0.992424679370115, 668799000000.0
-0.0724402781601309, -1.1501012175534877, -0.9918033929087695, 668804000000.0
-0.04507407669719238, -1.1105611659751256, -0.9909789351903913, 668809000000.0
-0.05287856483293153, -1.1166814451152072, -0.9909514201743963, 668814000000.0
-0.03266187264506774, -1.0947500742955765, -0.9906142276993054, 668819000000.0
-0.02397581697285968, -1.1349813493292433, -0.9904182839945146, 668824000000.0
-0.023343405580411425, -1.1821241511665377, -0.9914139482479826, 668829000000.0
0.10001485667405138, -1.0742704933587437, -0.9909057283809535, 668834000000.0
-0.08323768412194577, -1.1085029566956377, -0.9904886187647898, 668839000000.0
-0.054457593598025746, -1.105165667351087, -0.9905309173314587, 668844000000.0
-0.027184414406615773, -1.137167004942188, -0.9901371148280217, 668849000000.0
-0.018039069868684858, -1.1053290127295645, -0.9892790141699307, 668854000000.0
-0.030847633878401833, -1.105067684034322, -0.9891545379188613, 668859000000.0
-0.1191247178868335, -1.1847703170020991, -0.9905437596720104, 668864000000.0
0.1615176479116825, -1.0883826615555412, -0.9912272328713672, 668869000000.0
-0.08024591253027903, -1.0552184257681183, -0.9905911226693017, 668874000000.0
-0.07923443401324692, -1.1210061668320819, -0.9904662060215957, 668879000000.0
-0.04929738530712035, -1.1349504730128377, -0.9903291369407965, 668884000000.0
-0.002942960554724955, -1.1345364202050288, -0.9901474834668327, 668889000000.0
-0.02173348679593382, -1.102293223697361, -0.9901052812192725, 668894000000.0
-0.028133625588570462, -1.0933392438839384, -0.9898623198081202, 668899000000.0
0.03210149083774269, -1.2119852829042124, -0.9916246829519179, 668904000000.0
0.0005762141403315123, -0.9825187015941119, -0.9910689171487086, 668909000000.0
-0.14090413263640753, -1.1910787819129, -0.990485454852158, 668914000000.0
-0.012866497533114859, -1.1393332915082284, -0.9899620096213535, 668919000000.0
-0.033921055814843504, -1.099775092515909, -0.989480517101773, 668924000000.0
-0.0396479394428281, -1.1198396734702483, -0.989288858128275, 668929000000.0
-0.03309861840555427, -1.116553001486223, -0.9894056414829259, 668934000000.0
-0.6992596668525907, -1.0931652405644559, -0.9899285472123445, 668939000000.0
0.7379441564949821, -1.1971727329103974, -0.9897348338802053, 668944000000.0
-0.1646874189004331, -1.0061040765231841, -0.989268397774975, 668949000000.0
-0.600282746900793, -1.1304146334851872, -0.9916381923750038, 668954000000.0
0.24872478822245064, -1.3129876742278366, -0.9965740041558299, 668959000000.0
-0.3774600313675998, -0.9952348753684562, -0.9987686274340747, 668964000000.0
0.00869623598418725, -1.127846702789829, -1.002908138861631, 668969000000.0
-0.03865649490913005, -1.0832921412392726, -1.0066435620192258, 668974000000.0
0.037718566014833865, -1.0532212322026975, -1.0106602751862948, 668979000000.0
-0.020047571010501555, -1.196128642999176, -1.0139667529344072, 668984000000.0
0.012579222303400354, -1.0969964016127227, -1.0182607857682793, 668989000000.0
0.7585447257712935, -1.1515125597134392, -1.0197071926591412, 668994000000.0
-0.9705683631963969, -1.0053824095948887, -1.0216508919673102, 668999000000.0
0.003466933464236193, -1.1823588147629263, -1.024408663829162, 669004000000.0
0.5416889382005315, -1.2373326654960213, -1.027717226600731, 669009000000.0
-0.41603417529533016, -1.0748735213600396, -1.0266185059144934, 669014000000.0
-0.18491067064530978, -1.1272030520872738, -1.028715620247213, 669019000000.0
0.7763266855206175, -1.0743315528988393, -1.029072463439632, 669024000000.0
-0.8462918900821444, -1.2122151661389928, -1.0282554684008207, 669029000000.0
0.7412167653382834, -1.1687765737358398, -1.0290185800116691, 669034000000.0
0.1377799250214074, -1.0668684413501752, -1.0273702180818651, 669039000000.0
-0.9157493860364545, -1.2198302564904022, -1.0253156970826731, 669044000000.0
0.9615677824609802, -1.1300328837973341, -1.0257818253766693, 669049000000.0
0.05218173736855641, -1.1065562878778494, -1.0229996704139241, 669054000000.0
-0.005634635967874449, -1.198869296775485, -1.0199206551533015, 669059000000.0
-0.6885052817768436, -1.138575775704654, -1.0180709447198357, 669064000000.0
0.6738994632795499, -1.0662054616501078, -1.0176480511002193, 669069000000.0
0.13222212571369482, -1.0750929196184005, -1.0153769028125936, 669074000000.0
-0.04234585724013496, -1.2611969181797307, -1.0127684425601438, 669079000000.0
-0.00989116989197075, -1.1846430393609044, -1.010381799150257, 669084000000.0
0.07042910217047428, -1.0307825135251791, -1.007441705049948, 669089000000.0
0.04741111624058598, -1.080197076015177, -1.0051892746635904, 669094000000.0
0.019017597258480266, -1.1469431028260306, -1.0022479854098052, 669099000000.0
-0.0040054364723676635, -1.117923818104849, -0.9998746385401214, 669104000000.0
0.028125854227708177, -1.10306602285949, -0.9980169678266815, 669109000000.0
0.03711589483491318, -1.1033618450587162, -0.9958371885172208, 669114000000.0
0.03874896089777366, -1.1092721491710928, -0.9939805753077149, 669119000000.0
-0.001720502675075241, -1.0969112806710353, -0.9920016051964523, 669124000000.0
0.024715452950220013, -1.1119679732848364, -0.9906302742685014, 669129000000.0
0.039052908111357296, -1.0873762586167817, -0.988814595380653, 669134000000.0
0.025928641046071454, -1.099324257560085, -0.9883976173906355, 669139000000.0
0.02701378095836792, -1.0957138197623526, -0.9876610757068407, 669144000000.0
0.011835086914741503, -1.079311751545789, -0.9867084710621373, 669149000000.0
0.04826400608530889, -1.0879038417461127, -0.9867862865764001, 669154000000.0
0.03301153133054502, -1.075005084770551, -0.9861816634852459, 669159000000.0
0.03587493446421906, -1.1012240390870698, -0.9862703434907886, 669164000000.0
0.003155327205556696, -1.0901195677338427, -0.986538669072598, 669169000000.0
0.03032173566741321, -1.0792278800408652, -0.9869446042701363, 669174000000.0
0.04371115635685474, -1.0939074134348683, -0.9870841339485092, 669179000000.0
0.018596027895590946, -1.08761898814695, -0.9874845638489077, 669184000000.0
0.025096414409296653, -1.1058130322617974, -0.9880260191395045, 669189000000.0
0.03300728813323333, -1.0860889962997895, -0.9890040820404707, 669194000000.0
0.05013164914499256, -1.0902465737889135, -0.9892506858406735, 669199000000.0
0.007653418845277225, -1.0872472397937487, -0.9898768240752089, 669204000000.0
0.05340764468029308, -1.0345557010846156, -0.9905869560324924, 669209000000.0
0.03415657814629877, -1.0904468701366932, -0.9914339184473561, 669214000000.0
0.03502432525311011, -1.0613414298638124, -0.9916424853977499, 669219000000.0
0.03819472767109785, -1.0713107828926853, -0.992003543993957, 669224000000.0
0.039045490410146405, -1.1037712372579358, -0.9921657869075133, 669229000000.0
0.07258655487636372, -1.1080941104095317, -0.9920847055909882, 669234000000.0
0.023929850596050066, -1.0703058867044282, -0.9924341788269953, 669239000000.0
0.04366909996746222, -1.1187157506060141, -0.9924754013530868, 669244000000.0
0.03935599177078884, -1.0814092814915996, -0.992661390946259, 669249000000.0
0.05453832465311405, -1.0847189713200087, -0.9929140160350904, 669254000000.0
0.03317999306078922, -1.1225020453304544, -0.9930655887505598, 669259000000.0
0.0015320919478094136, -1.0713729550382662, -0.9932981245279648, 669264000000.0
0.052672713138619764, -1.1040211267006923, -0.9926153680873648, 669269000000.0
0.058820245310660706, -1.1025857291338517, -0.9932670235941016, 669274000000.0
0.04501192632163545, -1.065198176631596, -0.9927713827676986, 669279000000.0
0.05254232729595764, -1.073396993994658, -0.9926732490455948, 669284000000.0
0.03630539218883543, -1.0839585885986307, -0.9927868296093119, 669289000000.0
0.06972001696095143, -1.0936900873539435, -0.9924445856835966, 669294000000.0
0.050459316399145374, -1.0891412053702847, -0.9922252011469702, 669299000000.0
0.05721961088575879, -1.0595122135629438, -0.9920160486467594, 669304000000.0
0.03807469805010735, -1.0553490602396172, -0.9915047591261529, 669309000000.0
0.05947249923917069, -1.1017749185132137, -0.9916967940698195, 669314000000.0
0.03796136148693297, -1.0742763750983837, -0.9916177586234387, 669319000000.0
0.06983622486667604, -1.1069715763977073, -0.991616025477343, 669324000000.0
0.033988623237240494, -1.0667775524829253, -0.9910367013722948, 669329000000.0
0.012309914639149887, -1.098607254387122, -0.9911393233978387, 669334000000.0
0.02026380560981937, -1.0723259364256081, -0.9907888043495662, 669339000000.0
0.04209888934965998, -1.0412067341823956, -0.9905825786116078, 669344000000.0
0.06685664911747445, -1.0694944450883566, -0.9903147549363893, 669349000000.0
0.08244684638445546, -1.077209666655918, -0.9903395574628434, 669354000000.0
0.07247978685478346, -1.103339172666048, -0.9902078924831971, 669359000000.0
0.0772778817687837, -1.0598696913862273, -0.989230192490412, 669364000000.0
0.054752977616149404, -1.0359441505150113, -0.9892948939154104, 669369000000.0
0.08566698189995667, -1.086636543467005, -0.9892236128605246, 669374000000.0
0.040294133312926535, -1.0734031711915784, -0.988710650489794, 669379000000.0
0.06149352916259978, -1.105010616746046, -0.9883277668044816, 669384000000.0
0.027429951459501667, -1.0768431275652421, -0.9880041947085725, 669389000000.0
0.04881606702682004, -1.0899019755402104, -0.9875408408598877, 669394000000.0
0.052181597985411464, -1.0733874865282462, -0.9876813533143077, 669399000000.0
0.07292650466866668, -1.059458590705453, -0.9871329110196873, 669404000000.0
0.06321398114330685, -1.0546455364418836, -0.9866274949030186, 669409000000.0
0.06727318552373236, -1.0743740084389193, -0.986404819871362, 669414000000.0
0.08218846057417814, -1.0923942114415288, -0.9858934146893273, 669419000000.0
0.0475241435027937, -1.0940963412360427, -0.985828106127189, 669424000000.0
0.037953847565966356, -1.075865409451132, -0.9851679133933914, 669429000000.0
0.07573258357990371, -1.0746612857868285, -0.9853148625543542, 669434000000.0
0.02734168013091829, -1.0580819841666158, -0.9852053409104701, 669439000000.0
0.06079301135986686, -1.0337824087522935, -0.9848897512333308, 669444000000.0
0.050704593482474525, -1.0682803351131567, -0.9848588522901377, 669449000000.0
0.018195093901197834, -1.0572632622190252, -0.9846496513723084, 669454000000.0
0.04681125214030927, -1.0621701657158378, -0.9846457749445118, 669459000000.0
0.05300120464447603, -1.0619919664189976, -0.9843757953012012, 669464000000.0
0.050726950613586494, -1.0607396177323818, -0.9839050936267304, 669469000000.0
0.06888541001263879, -1.0727018443209342, -0.9838747726125951, 669474000000.0
0.05964647573321596, -1.0273889451300315, -0.982980365439043, 669479000000.0
0.01817579260708247, -1.041015308161748, -0.9832169031626278, 669484000000.0
0.04508246416960657, -1.0406689443228951, -0.9832280128329148, 669489000000.0
0.0652566711313375, -1.0596609599188882, -0.9823283097282776, 669494000000.0
0.04559828295289377, -1.073393471873183, -0.9819277715830823, 669499000000.0
0.07680360995467524, -1.0480295937088548, -0.9810969416503185, 669508000000.0
0.05523107681587751, -1.052592871488177, -0.980755811780605, 669513000000.0
0.06299297553875313, -1.097563348520977, -0.980189159945863, 669518000000.0
0.02692031521689996, -1.0420290065429023, -0.9806058580813356, 669523000000.0
0.05280445827905058, -1.0501256397867564, -0.9800877193930511, 669528000000.0
0.04839527585752812, -1.0972584716145628, -0.9798474037636148, 669533000000.0
0.05519137499729458, -1.0779410130592573, -0.9802412782850359, 669538000000.0
0.0634979288985431, -1.0904930320126034, -0.9796712342693875, 669543000000.0
0.07269973811954983, -1.0881967525856433, -0.9799327841151054, 669548000000.0
0.07212197405827275, -0.9796674652839289, -0.9795656700184737, 669553000000.0
0.061083390549455226, -1.0124392543339829, -0.9799540116958448, 669558000000.0
0.07771901337948808, -1.0174041213191456, -0.9804649499277782, 669563000000.0
0.0647700850251098, -1.013025802342016, -0.9813051597115579, 669568000000.0
0.0296720347121143, -1.0376400723188606, -0.9823779788968201, 669573000000.0
0.06276924409406852, -1.044759922347327, -0.9832430212881472, 669578000000.0
0.04998318662910297, -1.0280096944967851, -0.983890188734581, 669583000000.0
0.05195245209028984, -1.040196879923679, -0.984491478162423, 669588000000.0
0.03247313484884233, -1.086364599314541, -0.9857905300253382, 669593000000.0
0.03871988880555021, -1.0774713307328787, -0.9861791782876215, 669598000000.0
0.0551373649603904, -1.1009661073162984, -0.986800662384489, 669603000000.0
0.03182344337358168, -0.983018476331738, -0.987363425415854, 669608000000.0
0.04331419334807003, -1.0192067527867257, -0.9878112095876482, 669613000000.0
0.03235736884670597, -1.0624676769872987, -0.9883213256087269, 669618000000.0
0.04820040745086665, -1.0253656016823465, -0.9885206358075731, 669623000000.0
0.04845954941529652, -1.0841477826394577, -0.9892329843899587, 669628000000.0
0.06492113142751263, -1.0645225382032646, -0.9896475841825263, 669633000000.0
0.05139771069160715, -1.051142287709317, -0.989746020968855, 669638000000.0
0.06312224053470027, -1.0813530626020647, -0.990495971740008, 669643000000.0
0.019319820870075395, -1.0359060462616745, -0.9908438737300811, 669648000000.0
0.03216311246698475, -1.0437807657640727, -0.9917943554350053, 669653000000.0
0.043598990395938626, -1.0585546654959168, -0.9918141283921211, 669658000000.0
0.07987145570617228, -1.0541840012436074, -0.9926767535344363, 669663000000.0
0.019694302473388096, -1.0943300426861868, -0.9932270690470478, 669668000000.0
0.030630843796572722, -1.1024436470238146, -0.993273459659226, 669673000000.0
0.02914695583322317, -1.0767652380916144, -0.9934412851770255, 669678000000.0
0.009830142230013314, -1.0611052860976165, -0.993880314319663, 669683000000.0
0.025588151847520706, -1.1018637390640995, -0.9941483687422076, 669688000000.0
0.06310501015698035, -1.080200826459278, -0.994098634853698, 669693000000.0
0.049705114575333054, -1.0550753246764948, -0.9941246523691778, 669698000000.0
0.040017385535631673, -1.0417607183069713, -0.9943765937851777, 669703000000.0
0.047028122790842244, -1.083397199061018, -0.9943379784827094, 669708000000.0
0.0498755973417447, -1.1081024101474253, -0.9939496926759367, 669713000000.0
0.03203820043187342, -1.0523654124343733, -0.9942169501454854, 669718000000.0
0.024550419303701883, -1.0762201275331402, -0.9943067432877867, 669723000000.0
0.059492600624608094, -1.0927544349896932, -0.9941725920448513, 669728000000.0
0.036638018685899304, -1.065494833757265, -0.9942509801149846, 669733000000.0
0.035247686930117116, -1.0685582588077394, -0.9948158376813183, 669738000000.0
0.015404849994204346, -1.0696757163161716, -0.9945746262795332, 669743000000.0
0.04923277347518823, -1.078212916464546, -0.9951951861727151, 669748000000.0
0.05852676043558763, -1.0623893354742142, -0.9956275305542893, 669753000000.0
0.03966593867597641, -1.0849550602061038, -0.9951854342994714, 669758000000.0
0.05419926985292748, -1.1080715707625914, -0.9956033475388102, 669763000000.0
0.03764977428006379, -1.038586701085677, -0.9953784809623208, 669768000000.0
0.03722095844772849, -1.0542995279788996, -0.9953432905673476, 669773000000.0
0.04597575269150436, -1.105718508240784, -0.9955205906327405, 669778000000.0
0.029256278512486602, -1.0226677275544271, -0.9960514992652216, 669783000000.0
0.04394253579520017, -1.03967427977476, -0.9958202905086888, 669788000000.0
0.05206968676497954, -1.081931906801122, -0.9957746163346918, 669793000000.0
0.03466837307462964, -1.0785782440629772, -0.9957000720546573, 669798000000.0
0.051231092225033484, -1.097526982963084, -0.9951665978561663, 669803000000.0
0.04436250353393818, -1.1128440356822724, -0.9954346951402485, 669808000000.0
0.028608849619173565, -1.0791407904353536, -0.9951348665263534, 669813000000.0
0.04084737141097456, -1.0814123653260075, -0.994829148974502, 669818000000.0
0.018024660472496273, -1.0594874119010045, -0.995089126322427, 669823000000.0
0.022756315372282267, -1.0712216774115346, -0.9953273549920717, 669828000000.0
0.03283872281725935, -1.0884488438601159, -0.9952682287461366, 669833000000.0
0.003778940665371114, -1.1023993542796908, -0.9952687676622627, 669838000000.0
0.0180820707182779, -1.0533569456717071, -0.9950183839541901, 669843000000.0
0.040497383811988204, -1.0742697547925903, -0.9949835810754173, 669848000000.0
0.034557639662890216, -1.0634343031304176, -0.9950184552285395, 669853000000.0
0.028073458147053428, -1.1041020007444542, -0.9953941547424116, 669858000000.0
0.04413790748145652, -1.0365446052969671, -0.9950110064203894, 669863000000.0
0.028211597989796795, -1.0713473102409485, -0.9950013848516788, 669868000000.0
-0.0008753361855330551, -1.0748863584239423, -0.9949505452834764, 669873000000.0
0.006625487250988566, -1.1176448563739951, -0.9948057243582906, 669878000000.0
0.007368954601221106, -1.0572830199131975, -0.9952118055558883, 669883000000.0
0.05399669783362067, -1.086938413974119, -0.995249276020031, 669888000000.0
0.02424523559083954, -1.079055757146327, -0.9949997437912018, 669893000000.0
0.0008420716329796581, -1.078896637047126, -0.9948920211677187, 669898000000.0
0.027525722084906373, -1.1305684289085467, -0.994833489312001, 669903000000.0
-0.007260333042317716, -1.090012688257035, -0.9947313082151146, 669908000000.0
0.05205035946772406, -1.0852365835563338, -0.9946292379854326, 669913000000.0
0.025330818295118615, -1.1169579911346763, -0.994700683104466, 669918000000.0
0.018044668190168405, -1.071845888724582, -0.9943980880752342, 669923000000.0
0.010380392240406162, -1.0910667980577409, -0.9947627901416525, 669928000000.0
0.010178540051096283, -1.0794622834948617, -0.9949749095375409, 669933000000.0
0.03874545712608971, -1.0923169196284812, -0.9942317069545868, 669938000000.0
-0.016925591640744794, -1.096448414203603, -0.9944965898155739, 669943000000.0
-0.0035582384310972257, -1.0981687402142621, -0.994169111354884, 669948000000.0
0.016408443440291555, -1.0934558452633991, -0.9942422137662736, 669953000000.0
0.024372663661403317, -1.0803323140913674, -0.9938986743404401, 669958000000.0
0.005652969693345499, -1.1097098261050362, -0.9939753725038681, 669963000000.0
0.000444946137894817, -1.0824205615706988, -0.9941667366964378, 669968000000.0
0.05161954674684452, -1.1041264732599887, -0.9940457972459595, 669973000000.0
0.017129657834069726, -1.0954145241568187, -0.9938498508395418, 669978000000.0
0.0018473982183109727, -1.0920316098239933, -0.9937725486810329, 669983000000.0
-0.015540900068580419, -1.085823063865419, -0.9940456089647629, 669988000000.0
-0.017129337167724717, -1.1042609126404477, -0.9939108550935698, 669993000000.0
0.004917398044746337, -1.0606506820762411, -0.9934636465395149, 669998000000.0
0.017275347575749906, -1.1142911110115998, -0.9937397193129077, 670003000000.0
0.007305670387179226, -1.1065893092865169, -0.9937622904557007, 670008000000.0
-0.007007119025236796, -1.0872363524375226, -0.9935321902679539, 670013000000.0
-0.027061326809497924, -1.0850972514162511, -0.9933854070301074, 670018000000.0
0.015779650831199674, -1.099066279914241, -0.9932653298384522, 670023000000.0
0.03373870208580715, -1.0925080657825672, -0.9936228670327459, 670028000000.0
0.007145311781117682, -1.1107892312308647, -0.9936597630046763, 670033000000.0
-0.004506966729035919, -1.1180847724378566, -0.9936751695213738, 670038000000.0
0.0006869037869716278, -1.1006091361015915, -0.994100393569633, 670043000000.0
0.019804062506766813, -1.113659703006041, -0.9936243852876988, 670048000000.0
-0.0002089296781333657, -1.0999455672792757, -0.9935950603342627, 670053000000.0
0.013807638439150127, -1.096146698249696, -0.9929912257449364, 670058000000.0
0.000753671635440871, -1.1000566251287387, -0.9934448193328359, 670063000000.0
0.04749496544681877, -1.1345598896155156, -0.9925850734824901, 670068000000.0
-0.010657038408740268, -0.9933643944747881, -0.9925517219541735, 670073000000.0
-0.08296606033409484, -1.1591526783396138, -0.9923318223776292, 670078000000.0
0.0899441055346522, -1.1662309619756586, -0.9916211205899739, 670083000000.0
0.021912868076358633, -1.0871042535863724, -0.9914414421778863, 670088000000.0
-0.11816512365347434, -1.076357769905085, -0.9917891484422267, 670093000000.0
0.088832515920896, -1.1750639759049013, -0.991149956603239, 670098000000.0
-0.025638961211347767, -1.1323026121926048, -0.991095388582751, 670103000000.0
-0.0163557585057003, -1.0604502294044804, -0.9908867897886905, 670108000000.0
-0.062383747601017586, -1.1606570858598837, -0.9905825130641437, 670113000000.0
0.08994328463933592, -1.116527443320077, -0.990623783074517, 670118000000.0
-0.0114612464452433, -1.0857228553231668, -0.9904342947273179, 670123000000.0
-0.0027579970949070144, -1.1311277498042611, -0.9903800651131082, 670128000000.0
-0.02325925425419464, -1.1299041617477632, -0.9903372273595289, 670133000000.0
-0.02753308883392421, -1.1196075712690934, -0.9901570002355158, 670138000000.0
-0.5655446177102491, -1.1321370399758348, -0.9905768141413391, 670143000000.0
0.4834878979445648, -1.0527313126071731, -0.9930492818334299, 670148000000.0
0.11466684917495279, -1.1905876115885312, -0.9938419487530816, 670153000000.0
-0.5811616000429164, -1.1422777999710048, -0.9940619840256459, 670158000000.0
-0.12668175470657414, -1.0433462513533098, -0.9973864746302491, 670163000000.0
0.547456982939598, -1.1205877651802678, -0.9994609342067984, 670168000000.0
-0.5412041803096109, -1.1907691024769052, -1.002617941921511, 670173000000.0
-0.11457346600408035, -1.0800896395393422, -1.006333249754398, 670178000000.0
0.5844637775463482, -1.0968460512988554, -1.0107549815101755, 670183000000.0
-0.45948629399215407, -1.2476938384257326, -1.0152036725218043, 670188000000.0
-0.043161491402265245, -1.059779998753138, -1.018057588711, 670193000000.0
-0.458609317790884, -1.118461541102735, -1.0226491161465436, 670198000000.0
0.17816327857353814, -1.2059704028913951, -1.027769321248288, 670203000000.0
0.11268341043619523, -1.1920037925404443, -1.0303541863603614, 670208000000.0
-0.1531996382895981, -1.1146315236651438, -1.0327822012000436, 670213000000.0
-0.19875975022435136, -1.139734071757699, -1.0370222642217386, 670218000000.0
0.20684560166026222, -1.2474375036866416, -1.03991609646604, 670223000000.0
-0.003145227555527659, -1.1551200990478074, -1.0419210571495108, 670228000000.0
-0.34536350829037293, -1.1381756816034818, -1.044691531443343, 670233000000.0
0.025192769678341758, -1.2210569281244767, -1.0485051522641224, 670238000000.0
0.21393903682214033, -1.2573921007675717, -1.0501709435474027, 670243000000.0
-0.12913876369510027, -1.1402072420244793, -1.051677312174884, 670248000000.0
-0.32962989890309224, -1.1445894058616004, -1.054389203108233, 670253000000.0
0.12563355353180203, -1.1990617737199456, -1.0574057282349218, 670264000000.0
-0.31901972846312604, -1.1669126830084424, -1.058542765556063, 670269000000.0
-0.027034139570194213, -1.2188375891054315, -1.0609209927066017, 670274000000.0
0.24879904581776274, -1.2086798055440962, -1.0618288435763794, 670279000000.0
-0.0937081658165069, -1.1809127302679827, -1.0620865026178985, 670284000000.0
0.7704290121039046, -1.2831597246044646, -1.0613048784536552, 670289000000.0
-0.8804898167095633, -1.1455356688145277, -1.0606945649527393, 670294000000.0
0.013189801601123994, -1.1977044564072732, -1.0610190253558216, 670299000000.0
0.923102123067145, -1.2291252987674592, -1.058012605963799, 670304000000.0
-0.8897259253236791, -1.2210933739580347, -1.0537447769861803, 670309000000.0
-0.16232647552739604, -1.1519663077434028, -1.053719961500206, 670314000000.0
1.0125353380768327, -1.2619268546881683, -1.0495709360991436, 670319000000.0
-0.11276602780354013, -1.15509217588763, -1.0440521844061583, 670324000000.0
-0.010736025212783861, -1.1885209151939187, -1.039819765523281, 670329000000.0
-0.9680378401383242, -1.1417169650853332, -1.0387723853893378, 670334000000.0
0.9645298919204869, -1.2762893105110922, -1.0350073916845532, 670339000000.0
-0.10351057093040335, -1.064519482183615, -1.0310434410169866, 670344000000.0
-0.010343389550202267, -1.1940023048814896, -1.0270032432355742, 670349000000.0
0.028461818405721085, -1.1714420298840102, -1.0237314426029536, 670354000000.0
0.001968982077171208, -1.1465365728653367, -1.0205499648823213, 670359000000.0
-0.020879577580141927, -1.14839908028773, -1.017656995129242, 670364000000.0
-0.05137391219082889, -1.107492519126661, -1.014925491578104, 670369000000.0
-0.04256278023668623, -1.1414476892274297, -1.011985691360731, 670374000000.0
-0.03971945955314114, -1.13029635923552, -1.0094667904446817, 670379000000.0
0.06608909925811869, -1.2149631979952962, -1.0070985985967849, 670384000000.0
-0.041935272917929145, -1.0870474433845416, -1.0047621542742922, 670389000000.0
-0.005722421501522106, -1.150211021112145, -1.0019303724426856, 670394000000.0
-0.02118689925461012, -1.1283350862005441, -0.9997284082093048, 670399000000.0
-0.017168381454791465, -1.1365966451907794, -0.9970984890645647, 670404000000.0
-0.009213540605757143, -1.113534027884063, -0.9952825040103118, 670409000000.0
-0.006137257732507872, -1.099165504257112, -0.9942001884150001, 670414000000.0
-0.009462854238142453, -1.0736157355821396, -0.9927593403278986, 670419000000.0
-0.031423078112726786, -1.071672983498695, -0.992104989142186, 670424000000.0
0.06347542660690224, -1.151419953169565, -0.9912930383124308, 670429000000.0
-0.12017448430756889, -1.2044987868288688, -0.9904424872793939, 670434000000.0
0.07849443540486115, -1.0244844688886274, -0.9900295020750405, 670439000000.0
-0.0465624986337846, -1.107022621876677, -0.989546922815521, 670444000000.0
0.1053758466654216, -0.9195114147637793, -0.9890832228196476, 670449000000.0
-0.24988411824349804, -1.2137783457381293, -0.9874271739326873, 670454000000.0
0.03715853540137498, -1.1291956160786392, -0.9871852243593815, 670459000000.0
0.14802504954730347, -1.0497463206172026, -0.9865990343656253, 670464000000.0
-0.21055308877638867, -1.2146635467943492, -0.9860573382559571, 670469000000.0
0.05784482592466637, -1.0496291619661906, -0.985481628936555, 670474000000.0
0.1278233161205197, -1.0744068681222712, -0.984860760778526, 670479000000.0
-0.13280087914627314, -1.1181553747317408, -0.9849378605060034, 670484000000.0
-0.06809693000885267, -1.1041348570521872, -0.9843416496396707, 670489000000.0
0.10614553164951748, -1.1295825979191447, -0.9845873883244903, 670494000000.0
-0.03292422426730006, -1.0904671023029886, -0.9836495503646877, 670499000000.0
-0.10916772187393042, -1.1025755149220977, -0.9837750997870529, 670504000000.0
0.04247301481964614, -1.0807665081215534, -0.9835671750409541, 670509000000.0
-0.03717964561021071, -1.120572872793841, -0.9833391004615262, 670514000000.0
-0.06293982036717205, -1.095751766383255, -0.9828738258174388, 670519000000.0
0.132158368903659, -1.0490473210420506, -0.9830193353902626, 670524000000.0
0.019422441875514878, -1.1397439768400912, -0.9830783018227586, 670529000000.0
-0.12188165704692959, -1.0990294785116261, -0.9827378548843696, 670534000000.0
-0.03597147744076592, -1.0861805195215846, -0.9827707434433568, 670539000000.0
-0.016316485273972642, -1.1035332190394813, -0.982650422571414, 670544000000.0
-0.007841570141405164, -1.1302818995932857, -0.982845623312873, 670549000000.0
-0.016071301259934136, -1.0771774312340678, -0.9831428456070056, 670554000000.0
-0.031663475847629394, -1.0911730818459664, -0.9830603895952327, 670559000000.0
-0.04003524384209192, -1.0817041007216899, -0.9834478092515593, 670564000000.0
0.016312799459337616, -1.1071087097574237, -0.9831863417089436, 670569000000.0
-0.016446139695637567, -1.1130691214059172, -0.9833501383796986, 670574000000.0
-0.019143447117320425, -1.0934373167005025, -0.9829237032472614, 670579000000.0
0.0052504404768425345, -1.0804184922650406, -0.9825960764564364, 670584000000.0
0.014098506977178286, -1.1046655713760705, -0.9822395403658224, 670589000000.0
0.008955298593332054, -1.1006238888927413, -0.9825541036726729, 670594000000.0
-0.029917509180964755, -1.0782192915310411, -0.9817309184605093, 670599000000.0
0.018886345224762638, -1.1028518074177962, -0.9822913402808435, 670604000000.0
0.002566455578231966, -1.114751249431201, -0.9814154309322332, 670609000000.0
0.010508344434840736, -1.0902313580483243, -0.9815493954884535, 670614000000.0
-0.030157448241599202, -1.1240793373507065, -0.9810062872037139, 670619000000.0
0.017960954466740012, -1.1064181718403012, -0.9814839329345472, 670624000000.0
-0.005795177340894657, -1.1043500815592513, -0.9808922156811151, 670629000000.0
0.02746223347199739, -1.120849740322487, -0.9807857413355547, 670634000000.0
-0.0018847084934970632, -1.1090589391858405, -0.9804653595676709, 670639000000.0
-0.00633338617176131, -1.10055467917896, -0.9807500584846843, 670644000000.0
0.017356456368352285, -1.0750629899678419, -0.9802829781203795, 670649000000.0
0.012022340553798246, -1.100790122766548, -0.9801278949809152, 670654000000.0
0.008634053618959714, -1.0901890764986517, -0.9797893784471086, 670659000000.0
0.01698668132729606, -1.0985663364281872, -0.9798555228271228, 670664000000.0
0.01040598474988312, -1.0728238966987398, -0.9799599119888702, 670669000000.0
0.02029386787778776, -1.0798488477086778, -0.9799251828040353, 670674000000.0
-0.001500267389740937, -1.0905621485441122, -0.9800199052357838, 670679000000.0
0.02882362283662027, -1.08667860091604, -0.9795995881416176, 670684000000.0
0.022143701337983962, -1.0852722120059932, -0.980004148888634, 670689000000.0
-0.014838321445661887, -1.10271971156692, -0.9801981465416891, 670694000000.0
0.01333277498672535, -1.0639157346267427, -0.9798197874369711, 670699000000.0
0.030143476156313593, -1.1175888005239107, -0.9799455942500905, 670704000000.0
0.014584150215327971, -1.0787356826018826, -0.9803424985267662, 670709000000.0
0.03400948527364796, -1.0657910658782406, -0.9800981831918727, 670714000000.0
0.006111767336193594, -1.0915767028327386, -0.9802569419307898, 670719000000.0
0.024423617564669535, -1.0527512740624188, -0.979980752014479, 670724000000.0
0.006953124696885983, -1.0798642437317227, -0.9800752671201454, 670729000000.0
0.012614508134923421, -1.0789723439226395, -0.9796756869918412, 670734000000.0
0.03860403931133172, -1.067361106299834, -0.9797960279480022, 670739000000.0
0.02895010362181412, -1.0825476766349278, -0.9793890744314988, 670744000000.0
0.004306327077405761, -1.1072533667230118, -0.9791190630878451, 670749000000.0
0.019777605782645008, -1.1074228635392334, -0.9792155413624754, 670754000000.0
0.01348860922639971, -1.0718298136995406, -0.9795458120297161, 670759000000.0
0.030902854726735686, -1.0781325625600628, -0.9793876036822767, 670764000000.0
-0.01169806278904129, -1.1092407575355063, -0.9794315698367254, 670769000000.0
0.04701029790285065, -1.0887137095563657, -0.9793104699792684, 670774000000.0
0.023830482724869505, -1.0991626739108242, -0.9795358442781554, 670779000000.0
0.002096460688495871, -1.1083348949257816, -0.9794081865761185, 670784000000.0
-0.017766451737002333, -1.0931456453449884, -0.9796003225269083, 670789000000.0
0.024750914129590428, -1.1236857961739326, -0.9798762164784238, 670794000000.0
0.009259828074502936, -1.1074716845308807, -0.9802655377362277, 670799000000.0
0.02667195968691335, -1.0672780128272734, -0.9803743912965747, 670804000000.0
0.03189975075061574, -1.065302425650759, -0.9807410586399358, 670809000000.0
0.01910660389811211, -1.0691859459106887, -0.9804957231068625, 670814000000.0
0.018306428003914146, -1.128877374215875, -0.9807364704703871, 670819000000.0
0.01568028005672216, -1.0715702479549343, -0.9809547481248235, 670824000000.0
0.046014361905714694, -1.079012163080584, -0.9810918579817121, 670829000000.0
0.025470888003073802, -1.1032743695646015, -0.9806050586812508, 670834000000.0
0.019502962841593183, -1.0775941831173377, -0.9804692991944598, 670839000000.0
0.006585867328429527, -1.10319297157799, -0.9809745209126346, 670844000000.0
0.015186262691678191, -1.094554647747387, -0.9807577039438095, 670849000000.0
0.017699312148022707, -1.1152192917378765, -0.9809818332741302, 670854000000.0
0.02196047238979459, -1.1115566633890255, -0.9806148697436274, 670859000000.0
0.03169845785212146, -1.0728914522708004, -0.9807549693964964, 670864000000.0
0.025438116707804843, -1.0906962439259442, -0.9804061901901417, 670869000000.0
0.024287837194681174, -1.111657929506483, -0.9807690547546682, 670874000000.0
0.0014268563268480527, -1.1160287464574516, -0.9806765241378047, 670879000000.0
0.008419491489908679, -1.0973525697761277, -0.980527309678425, 670884000000.0
0.01221189922880881, -1.0994768964198358, -0.9809360245732308, 670889000000.0
0.023428853288561043, -1.093748734651628, -0.9810801139199029, 670894000000.0
4.146777809813096e-06, -1.1109833115043377, -0.9810510836852739, 670899000000.0
0.03974233969024901, -1.0728116841668633, -0.9811376124531347, 670904000000.0
0.045407722335953055, -1.09074780714479, -0.9814088837650564, 670909000000.0
0.009504330284112093, -1.078595189221408, -0.9813024906244484, 670914000000.0
0.011289785818062685, -1.087898877955797, -0.981349056272661, 670919000000.0
0.015759383478068042, -1.1094480921068832, -0.9817848809831744, 670924000000.0
0.019743595580247904, -1.0865904210221573, -0.9814300208752077, 670929000000.0
0.0004933247367851709, -1.0870345126966114, -0.9814409069471913, 670934000000.0
0.025092731086619663, -1.0921110348122298, -0.9811416726010201, 670939000000.0
0.021130857195741277, -1.0740917527965217, -0.9809289486318177, 670944000000.0
0.02686680639418861, -1.1110338899690695, -0.9808616659242446, 670949000000.0
0.00241561305512388, -1.0835481457989249, -0.9803375210700807, 670954000000.0
-0.003195444346517213, -1.0603863214762712, -0.9802164302556676, 670959000000.0
0.020108751533321142, -1.1193309807128289, -0.9805386223213175, 670964000000.0
0.042976319806122334, -1.0969420829731196, -0.9798875904362043, 670969000000.0
0.037667272130335494, -1.0962529366029368, -0.9802592252149723, 670974000000.0
-0.0038259240996748843, -1.1144173992469588, -0.9800928482032837, 670979000000.0
0.02813632847640382, -1.098502852980969, -0.9800401418325229, 670984000000.0
0.024108170988734322, -1.0926981225547112, -0.9800001147297794, 670989000000.0
0.005508471773044508, -1.0992191790081476, -0.9802725456055486, 670994000000.0
0.01699494260419275, -1.1337274397164527, -0.980208653759598, 670999000000.0
-0.010432764603245648, -1.1092011157034185, -0.9804764506882471, 671004000000.0
0.013391078266987926, -1.0744994930809837, -0.980542369223984, 671009000000.0
0.008381322816762272, -1.1108555262274769, -0.9805252288603133, 671014000000.0
0.018374881027888902, -1.084296955669414, -0.9804842709538945, 671019000000.0
0.006727391001267177, -1.108022958325861, -0.9808931831493024, 671024000000.0
0.03862851858127367, -1.0900531025216025, -0.9807966323893842, 671029000000.0
0.011792956861869089, -1.1037491756119753, -0.9803910251367619, 671034000000.0
-0.5200262153818372, -1.1378344940612894, -0.9810812048477284, 671039000000.0
0.5971831382577293, -1.0705323851076292, -0.9830521808324341, 671044000000.0
0.026419025246694858, -1.0872383024895889, -0.9835143398697281, 671049000000.0
-0.05081396278667613, -1.088208682319612, -0.9827825711924009, 671054000000.0
-0.6987278766513491, -1.1522624221331914, -0.9841823235927357, 671059000000.0
0.8121143996172996, -1.0747147306500076, -0.9856151772985493, 671064000000.0
-0.10923139491590236, -1.0810243804044122, -0.9856835765114322, 671069000000.0
-0.7143437945163034, -1.1027903494684577, -0.9864157796925811, 671074000000.0
0.7172656918415399, -1.104525467171928, -0.987802231000236, 671079000000.0
0.014946997589520169, -1.1028712944352286, -0.9876983783106745, 671084000000.0
-0.7856471038132589, -1.1285014266675994, -0.9892091024696285, 671089000000.0
0.7550112524412806, -1.0779505793180852, -0.9916164091858386, 671094000000.0
0.022288900110099555, -1.0724695956338284, -0.9917804304150535, 671099000000.0
-0.7448185311663255, -1.1551270670041134, -0.993314969614193, 671104000000.0
0.7468461777502787, -1.107494306467515, -0.9952336327154098, 671109000000.0
0.05182601762564937, -1.0901326163971017, -0.9950797187315494, 671114000000.0
-0.7175591178264871, -1.1326962432125944, -0.9972366859244086, 671119000000.0
0.686088481114999, -1.1144214401363866, -0.9997993361996718, 671124000000.0
0.09311633214878269, -1.152450157226702, -0.9991725420488501, 671129000000.0
-0.7694920207480564, -1.1411238618656878, -1.0005158399835101, 671134000000.0
0.6799899211399837, -1.0855556934656172, -1.0020585080472275, 671139000000.0
0.15480335064735562, -1.1319857122847348, -1.0013401983793087, 671144000000.0
-0.8202610957749228, -1.1680644008908114, -1.0017094810033587, 671149000000.0
0.5884507667341231, -1.0560064232020616, -1.0038099437169563, 671154000000.0
0.2070626562246892, -1.118982003201944, -1.0033931290721292, 671159000000.0
-0.7815988974568343, -1.177135856136937, -1.0031142819211767, 671164000000.0
0.486984306413147, -1.0805066854206051, -1.005942086631094, 671169000000.0
0.3881126881026156, -1.1046158034187914, -1.0051324548986986, 671174000000.0
-0.6432769297429958, -1.143649647461032, -1.0040288696787123, 671179000000.0
-0.2009681905074235, -1.1263769381309656, -1.006647246460142, 671184000000.0
0.8411835940411936, -1.047073370335497, -1.006504197927013, 671189000000.0
-0.023230465312897346, -1.1377867056860196, -1.0049806658326006, 671194000000.0
-0.8085184412143964, -1.1853323847477828, -1.007045679296042, 671199000000.0
0.8205252573174486, -1.0662812355701017, -1.0060483711097468, 671204000000.0
-0.05069366336546487, -1.1869524527115616, -1.0045223063635091, 671209000000.0
-0.8032352000518592, -1.1466852737674762, -1.0061648615563636, 671214000000.0
0.8184105640910893, -1.089033732286644, -1.005589302222275, 671219000000.0
-0.03596176682068552, -1.1439520856172254, -1.004009803124791, 671224000000.0
-0.7952874494087903, -1.1748939877751052, -1.004507032302504, 671229000000.0
0.7386059492162563, -1.0167107945872866, -1.005246101601774, 671234000000.0
0.06785891041281425, -1.1114243196611913, -1.004369970231626, 671239000000.0
0.02998107630739208, -1.0675304868325974, -1.0029934692217886, 671244000000.0
-0.03425824472553893, -1.1015839545314337, -1.0017180153821443, 671249000000.0
-0.10390236702160824, -1.07070019296477, -1.000524713708333, 671254000000.0
0.08563825990854211, -1.2085491852631849, -0.9996458999359684, 671259000000.0
-0.012575881007298948, -1.088381698153902, -0.998722566109281, 671264000000.0
0.01715110427944881, -0.9701277313295474, -0.9984894672141471, 671269000000.0
0.038508678567858765, -1.296485731831132, -0.9977137452990283, 671274000000.0
0.060145869320653605, -1.0520890038606379, -0.9960724108111191, 671279000000.0
-0.16768459556178889, -1.021621131648215, -0.9955910215113923, 671284000000.0
0.10024789164554526, -1.2547262759198456, -0.9954054605153191, 671289000000.0
0.08342071810783666, -1.0761860135987948, -0.9938440788086984, 671294000000.0
-0.1425430882356801, -1.0116480110116595, -0.9937768458231604, 671299000000.0
0.07216281994548444, -1.1823939559968013, -0.9932752682009318, 671304000000.0
0.05419697769337742, -1.100180040372869, -0.9926781219279299, 671309000000.0
-0.0683285343613814, -1.009220720898733, -0.9924362937794412, 671314000000.0
0.0542000848008529, -1.2479771269732547, -0.9916976680097828, 671319000000.0
0.09690348035439648, -1.0696490032894417, -0.9905186920625139, 671324000000.0
-0.232892014779648, -1.0259167256049597, -0.9899591666904346, 671329000000.0
0.03844821903682087, -1.207034295228135, -0.9900339159057479, 671334000000.0
-0.017312132595435112, -1.1185809055453604, -0.9897900422404439, 671339000000.0
0.07499523752328272, -1.0462556468630386, -0.9882189401036572, 671344000000.0
-0.18780249430254267, -1.0665141433431045, -0.9890717746678771, 671349000000.0
0.07619043469920868, -1.1818994624733155, -0.9888001636974513, 671354000000.0
0.10606658594649881, -1.0823239208525521, -0.9882953615078691, 671359000000.0
0.002972267328613533, -1.106269426740765, -0.9870068999815088, 671364000000.0
-0.06130066694485011, -1.0322923607703425, -0.9868371987986663, 671369000000.0
-0.0651222547518379, -1.2443075650704347, -0.9860936697295131, 671374000000.0
-0.026273880148423315, -1.0965856789788657, -0.9864292168174547, 671379000000.0
0.01927102844958683, -1.0707684497068461, -0.9858404003621714, 671384000000.0
-0.029274752984811084, -1.103855871798875, -0.9851337720845792, 671389000000.0
-0.08074479866586337, -1.1297985577598277, -0.9855252268870364, 671394000000.0
-0.008256491624674739, -1.1135168358181802, -0.9851937078582781, 671399000000.0
0.013395134403197305, -1.0796596530000335, -0.9851478329786869, 671404000000.0
-0.030459174445543486, -1.1404261261779265, -0.985216848331586, 671409000000.0
-0.04169870038415147, -1.0833852638735482, -0.9856057145575727, 671414000000.0
0.025967613811334816, -1.0563133560812819, -0.9847788998868737, 671419000000.0
-0.02075626153918781, -1.0772096174929155, -0.9845760273306271, 671424000000.0
-0.002819489496077062, -1.123851824156851, -0.984842826596332, 671429000000.0
0.007691351522553672, -1.1122826374824708, -0.984646086004481, 671434000000.0
-0.018025442851399547, -1.1184731852190355, -0.9850854182696795, 671439000000.0
-0.013851048293593664, -1.114597693179431, -0.9849912553418303, 671444000000.0
-0.019823484326708322, -1.103856620553915, -0.9852658284835814, 671449000000.0
-0.02999791111005572, -1.1079254156867404, -0.9855378257287465, 671454000000.0
0.011608721924086133, -1.122100146580546, -0.9856224277381133, 671459000000.0
-0.0008650874406502026, -1.1311392373773568, -0.9859804055746626, 671464000000.0
-0.03543563767995925, -1.1482763870210555, -0.9867671439621786, 671469000000.0
0.006804941017826364, -1.1031322718340328, -0.9866257651137473, 671474000000.0
-0.03163776234442327, -1.1340835521231076, -0.9874547601081739, 671479000000.0
-0.021944326575783445, -1.1194719758516765, -0.9869593568311946, 671484000000.0
-0.011483627666776923, -1.1483696168468875, -0.9871506103618334, 671489000000.0
-0.029298782860747184, -1.108927022383538, -0.9872641083016207, 671494000000.0
-0.11713347253758304, -1.097347467855848, -0.987739112117796, 671499000000.0
0.11945947845679437, -1.162293100429678, -0.9877244192979673, 671504000000.0
-0.018566836593100516, -1.0760400120651223, -0.9879810452045028, 671509000000.0
-0.01586987908196066, -1.0972708372221598, -0.987465397315791, 671514000000.0
0.001567431736387008, -1.0674440010238762, -0.9875151392073163, 671519000000.0
-0.01463770516639344, -1.0997391436351804, -0.9874894529569673, 671524000000.0
-0.6760647382509398, -1.1042616712295585, -0.9894884821966977, 671529000000.0
0.5122398872154557, -1.0828016138005716, -0.9917529684238167, 671534000000.0
-0.4819862952277273, -1.1482709787932628, -0.9941568677798108, 671539000000.0
-0.2192527297357482, -1.027870691597974, -0.9984305949887526, 671544000000.0
0.45896183612366614, -1.154605210797904, -1.003905974712166, 671549000000.0
-0.5044266100837447, -1.1134587478380606, -1.0083670052982392, 671554000000.0
-0.01675204974294428, -1.1474385874227169, -1.0128372994872206, 671559000000.0
-0.06541515250519488, -1.1529572872162304, -1.0165830452996463, 671564000000.0
-0.05092752148731158, -1.1245031709758002, -1.0202907986860639, 671569000000.0
0.011715132710905712, -1.1417851015331058, -1.024128362787752, 671574000000.0
0.009635468458545446, -1.1614320359268042, -1.0273623612825808, 671579000000.0
0.018970615868142818, -1.151567850215676, -1.0301284087072002, 671584000000.0
-0.05138580563604842, -1.12897712697193, -1.0339198066661377, 671589000000.0
-0.015781520782266592, -1.1316271240305364, -1.0366281912212485, 671594000000.0
-0.03197268186691153, -1.1643540037853581, -1.0399495647553982, 671599000000.0
-0.06631503055866907, -1.167932079289109, -1.042586587519533, 671604000000.0
-0.12120537490146985, -1.175118333067994, -1.0426074063906208, 671609000000.0
-0.06561123264405672, -1.1656305724317424, -1.0448878855394363, 671614000000.0
-0.06648274986032425, -1.1611213446711681, -1.047159376043675, 671619000000.0
0.9059941053177653, -1.1839121778965365, -1.0482861660525724, 671624000000.0
-0.9752898917876432, -1.168387792648198, -1.0481531055280076, 671629000000.0
0.05202935307559558, -1.1621789703243453, -1.0497538524175638, 671634000000.0
0.9823248076894334, -1.1937042050562625, -1.0492168769485009, 671639000000.0
-1.0999141334879377, -1.1695351205614266, -1.048225210725521, 671644000000.0
0.07470856562983783, -1.18186013082427, -1.050091010982062, 671649000000.0
0.9530014381522939, -1.2263453350646853, -1.0470809815109445, 671654000000.0
-1.0145376007294613, -1.1345947511334202, -1.0458329167984628, 671659000000.0
0.9453954893254527, -1.1812477583510463, -1.047026222975539, 671664000000.0
0.19138825420462938, -1.1857505493848202, -1.0432115291678572, 671669000000.0
-0.02283007654211644, -1.1677796694859883, -1.039407771689983, 671674000000.0
-1.0242611941025197, -1.1412328268807421, -1.0411443797372613, 671679000000.0
0.9087153557231354, -1.1511910371645682, -1.0378373233345193, 671684000000.0
0.0494592677160246, -1.1719450142957895, -1.034401125161445, 671689000000.0
0.05645468096950341, -1.1323518431023627, -1.0310911720283984, 671694000000.0
-0.9715887598635136, -1.1373735115200754, -1.029476465650961, 671699000000.0
1.0743735325101922, -1.1247305591299508, -1.0280710636941135, 671704000000.0
-0.14060703467512825, -1.1267795164766663, -1.0246304795820504, 671709000000.0
0.03383773813040535, -1.1590399350229765, -1.021670629037305, 671714000000.0
-0.010135139110797588, -1.1215471436203561, -1.0187786399356356, 671719000000.0
0.026569131148374874, -1.1294379043803229, -1.0160744634458434, 671724000000.0
0.014491795799979883, -1.166495542255762, -1.0140212655903778, 671729000000.0
-0.004183995398789678, -1.1502767748069416, -1.011136609535772, 671734000000.0
0.04608001293918888, -1.1065191165364672, -1.0087903606077395, 671739000000.0
0.021623850626717955, -1.147778290020158, -1.0067923317047645, 671744000000.0
0.09761580104721461, -1.0663989829176503, -1.0045635909643313, 671749000000.0
-0.12178566963211036, -1.1975116791642995, -1.002586285933982, 671754000000.0
0.06087187611537832, -1.099885496775382, -1.0012667609351042, 671759000000.0
0.07419689970012608, -1.0148218586715836, -0.9992730801167101, 671764000000.0
0.0520645699450584, -1.1196255900978578, -0.9977093542471215, 671769000000.0
-0.03399048222459601, -1.1158558627539636, -0.996650975491765, 671774000000.0
-0.03352623749418691, -1.1434797666553365, -0.9949356495563884, 671779000000.0
0.1446295682489593, -1.0022553521822892, -0.9932384174511886, 671784000000.0
-0.08864575498051244, -1.1431027147706991, -0.9916091274450406, 671789000000.0
0.05230722452615675, -1.0775984761232429, -0.9905433507859162, 671794000000.0
0.08635210131544717, -1.0441190196908576, -0.9894496487364591, 671799000000.0
-0.0937074607013051, -1.137238383546521, -0.9874342980364388, 671804000000.0
0.01470343451309383, -1.0917874306668034, -0.9858230471749848, 671809000000.0
-0.035023521116881125, -1.1103190080376315, -0.9852308924906293, 671814000000.0
-0.00430008716571617, -1.0932802925464356, -0.9839595095324697, 671819000000.0
-0.015607856857478512, -1.1302860940352177, -0.9830801980423467, 671824000000.0
-0.012190046510518651, -1.136976944372094, -0.9824052568067972, 671829000000.0
0.03533058339693508, -1.0518210626822682, -0.9815810587564285, 671834000000.0
-0.02398465621182627, -1.1228845054076035, -0.9813492896363877, 671839000000.0
0.003607856531911943, -1.0698677948315387, -0.9805034334967447, 671844000000.0
-0.008892829547646544, -1.1297536536456727, -0.9803907677728052, 671849000000.0
0.018190189556010244, -1.061718506271952, -0.9797089996997767, 671854000000.0
-0.003671970687430119, -1.0731774017312943, -0.9801259184191481, 671859000000.0
-0.03245004709039275, -1.1200850161105254, -0.9797424671801374, 671864000000.0
-0.02417095630903867, -1.0715779514281134, -0.9793399108066233, 671869000000.0
-0.029875478805228232, -1.096979348723841, -0.9795628579473451, 671874000000.0
-0.009158204087517035, -1.100058117702296, -0.9801374466600913, 671879000000.0
0.011312737703180382, -1.05774796551499, -0.9802039674524151, 671884000000.0
-0.007257581954948038, -1.1138125138561428, -0.9802797345377974, 671889000000.0
-0.008402115763021765, -1.0557199427211397, -0.9803452462913852, 671894000000.0
-0.014960193876670263, -1.0566850414909144, -0.9809410162527108, 671899000000.0
-0.011115130440893121, -1.0741935911604334, -0.9808596322991228, 671904000000.0
0.019549083943325336, -1.101826382717313, -0.9811203068766225, 671909000000.0
-0.010835786205073757, -1.0829455089457067, -0.9815235966664864, 671914000000.0
-0.02658527663385463, -1.0976803951282186, -0.9820515666591368, 671919000000.0
-0.034726105074546224, -1.116186881958138, -0.9819086714694104, 671924000000.0
0.0015469107225378684, -1.08616254371431, -0.9823987691478725, 671929000000.0
-0.010627935127914781, -1.074572388982114, -0.9827790545851189, 671934000000.0
-0.017575129010840424, -1.049273892493831, -0.9832460561941059, 671939000000.0
-0.006684633272742017, -1.0780546491236018, -0.9834556652869025, 671944000000.0
-0.016639335900273798, -1.120936025094771, -0.9834247491631027, 671949000000.0
0.08456423251730281, -1.034828758932074, -0.9842204520310925, 671954000000.0
-0.07490099555244517, -1.0607284711889553, -0.9842320033095733, 671959000000.0
-0.03357979521437195, -1.082492954990719, -0.9846290339700493, 671964000000.0
0.16981921453787766, -1.0688270937846618, -0.9850442883940247, 671969000000.0
-0.10001318658726986, -1.0800861019718522, -0.9847163033977182, 671974000000.0
-0.03774617508950544, -1.090914488457746, -0.9848922682027987, 671979000000.0
0.0498696663206189, -1.0836580530932138, -0.9851190921039121, 671984000000.0
-0.029095168499088185, -1.2065923179185023, -0.9849195972754058, 671989000000.0
0.0008602123915596887, -0.8669342075503279, -0.9849583748727587, 671994000000.0
-0.0012645056453130972, -1.11322284393181, -0.9845863480198607, 672004000000.0
-0.024438347747455482, -1.040326939382049, -0.9851662593810728, 672009000000.0
0.12494650338327483, -1.0367244869301389, -0.9849720169183983, 672014000000.0
-0.10204703983867099, -1.180775946618491, -0.9845415512382691, 672019000000.0
-0.03798587709714693, -0.9912548063752161, -0.9850722788806058, 672024000000.0
0.055438795913965, -1.0683900765244518, -0.9849263061768849, 672029000000.0
-0.07647023427966645, -1.118430061913349, -0.985010115430439, 672034000000.0
-0.021500556443472353, -1.062213413826396, -0.984870846200182, 672039000000.0
0.06839231661665897, -1.0555343639203423, -0.9847041560356469, 672044000000.0
-0.1351620752051398, -1.1956198478915732, -0.9855058677042456, 672049000000.0
0.08627189863161694, -1.0237623567049405, -0.9853833128613643, 672054000000.0
0.0023866720939044184, -1.006515656957471, -0.9856576939486003, 672059000000.0
-0.16072043260634353, -1.2063367878296525, -0.9853994823184022, 672064000000.0
0.0411391444603166, -1.08679556668018, -0.9855733006179676, 672069000000.0
0.006542220625175801, -1.0496528590535883, -0.9857071068187635, 672074000000.0
-0.09510027852962506, -1.1629508042020222, -0.9854301476767079, 672079000000.0
0.03200508105803009, -0.9949287119345286, -0.9851585490615143, 672084000000.0
-0.04311325866276672, -1.0898507829982964, -0.9853304779982982, 672089000000.0
0.0634653808299315, -1.141727068709821, -0.9849434937702982, 672094000000.0
-0.2014497101403916, -0.99178773842305, -0.9849516271583909, 672099000000.0
0.09196990492218314, -1.1006950100005195, -0.9851768022330936, 672104000000.0
-0.029067759690614033, -1.0672313129318671, -0.984812426553388, 672109000000.0
-0.07485234821852652, -1.1995749988589224, -0.9850097851483263, 672114000000.0
0.06713960102844385, -1.0540054643894352, -0.9845932542907746, 672119000000.0
-0.04677187686472602, -1.0685787314994801, -0.984780749992472, 672124000000.0
-0.026266110731328073, -1.113613051658425, -0.984827719907897, 672129000000.0
-0.13521631772020262, -1.1473371933387053, -0.985082617129019, 672134000000.0
0.09505593542614116, -1.1020292395088196, -0.9851512039013866, 672139000000.0
0.02635982008488614, -1.0347418130288872, -0.9858591220329557, 672144000000.0
-0.18049407922180644, -1.118918469737205, -0.9859495124479608, 672149000000.0
0.11752495568276149, -1.13114427095658, -0.9857004921028519, 672154000000.0
-0.02191342147214041, -1.1137055317585725, -0.9859723329811846, 672159000000.0
0.037932764871314334, -0.9917681114376596, -0.985627156360454, 672164000000.0
-0.14783739643009963, -1.152912289018146, -0.9859172209760059, 672169000000.0
0.08535318657006231, -1.103108394290918, -0.9854854206146427, 672174000000.0
-0.03502188717350661, -1.1357209622473594, -0.9854487615017934, 672179000000.0
-0.014042048752620008, -1.1036765028213347, -0.9855403468430709, 672184000000.0
0.012120153705778125, -0.9932105101537092, -0.9852393190480712, 672189000000.0
-0.10170170846342444, -1.2020463054838733, -0.9845690289834435, 672194000000.0
-0.015048603803091374, -1.1559610502821005, -0.9845914508960791, 672199000000.0
-0.0398227550104802, -1.1066421766966612, -0.9844320947592445, 672204000000.0
-0.11213078991657494, -1.1351975273977244, -0.9843522766913767, 672209000000.0
0.10279375768562235, -1.0847096772321831, -0.9841671154343675, 672214000000.0
-0.00926534090874151, -1.0935145631482832, -0.9846548469233753, 672219000000.0
-0.02415173410768853, -1.120571662739498, -0.9843957141930619, 672224000000.0
-0.14681521595858996, -1.1251135961946432, -0.9846607590284913, 672229000000.0
0.1299955594319817, -1.0484314829482293, -0.9852391577144859, 672234000000.0
-0.013577294679902534, -1.0931744753777974, -0.9851553158111853, 672239000000.0
-0.04558118830927335, -1.131381860661389, -0.9856127671029722, 672244000000.0
-0.13210089050518867, -1.1901443666816818, -0.9853579738900812, 672249000000.0
0.11772379896061905, -1.0629155244627253, -0.9858047405049254, 672254000000.0
-0.012273352296261468, -1.0805608663505215, -0.985921260431907, 672259000000.0
-0.046706379620160846, -1.0504378887075676, -0.9864121919500997, 672264000000.0
-0.13294768070217147, -1.1190106029809663, -0.985814531693817, 672269000000.0
0.09850861159349461, -1.058614351330819, -0.9866856757294904, 672274000000.0
-0.03718051832477093, -1.1011094265122372, -0.9861035645889215, 672279000000.0
-0.09160644188669698, -1.0966523258283405, -0.9861891464479772, 672284000000.0
0.11701747249889392, -1.1039090784585324, -0.9859180536064606, 672289000000.0
-0.023706351762277977, -1.0835709554692314, -0.9856102002799141, 672294000000.0
-0.010324143776179377, -1.0801050110666996, -0.9857313372532986, 672299000000.0
-0.08505253771316296, -1.114652899090433, -0.9852637582925987, 672304000000.0
0.10137613141737864, -1.0355094734923467, -0.9853283935686535, 672309000000.0
-0.01717740196503469, -1.0760967999936566, -0.9852598555656534, 672314000000.0
-0.06855990203571026, -1.0662276424658423, -0.984821580316332, 672319000000.0
0.09697643766173358, -1.1014325745940379, -0.9850780743122446, 672324000000.0
-0.051387345431199744, -1.119960800288002, -0.9851619624490302, 672329000000.0
-0.11409588520005104, -1.099282984440404, -0.984677110988003, 672334000000.0
-0.6837799294987322, -1.209880125549107, -0.987986348030585, 672339000000.0
0.08592885996298145, -1.1018715077266679, -0.9919127117107179, 672344000000.0
0.01778217411443239, -1.1382156028714383, -0.9960157860876215, 672349000000.0
0.014929500830104362, -1.0399363024453903, -0.9999468868861778, 672354000000.0
0.5950143508975922, -1.1296403843174192, -1.0032073802510246, 672359000000.0
-0.7822057208432549, -1.1017536444117781, -1.004770468603164, 672364000000.0
-0.030079205906668367, -1.1721078288891098, -1.0076635185185996, 672369000000.0
0.010251964476180117, -1.1880508239419456, -1.0103911022604815, 672374000000.0
-0.0010034863069718295, -1.21220456258768, -1.0131766804111657, 672379000000.0
-0.006912147886460357, -1.070621247449537, -1.0167899402973817, 672384000000.0
-0.0702409921263282, -1.0362459368930135, -1.017199760395182, 672389000000.0
-0.08680339714554952, -1.1805538517327512, -1.0195826698783135, 672394000000.0
0.03553520947890011, -1.203325756254286, -1.0214371932174817, 672399000000.0
0.7775052254363123, -1.2885404483294376, -1.0230693292898905, 672404000000.0
-0.8421933244225023, -0.9590848904486935, -1.0226090725797787, 672409000000.0
-0.040474887650038247, -1.1327500760833487, -1.0242376644731004, 672414000000.0
0.06591979472049907, -1.2390561281199786, -1.0265182168477818, 672419000000.0
0.7894512334709639, -1.1075398167928514, -1.0248795825016204, 672424000000.0
-0.916296697475847, -1.1307196227224405, -1.0265087990637412, 672429000000.0
0.6870938832349684, -1.129325443126993, -1.0278789909062747, 672434000000.0
0.06308633229091667, -1.1386993821076268, -1.0257576327172668, 672439000000.0
-0.8754402936245737, -1.1864420043587938, -1.0279786193216809, 672444000000.0
0.7562656397636601, -1.0812149452712032, -1.027427062443119, 672449000000.0
-0.6421745515586446, -1.1653903260211942, -1.025618231277527, 672454000000.0
0.6073793054622687, -1.18028223750675, -1.0264900086236455, 672459000000.0
0.0815412060466423, -1.108113185102951, -1.023963349629817, 672464000000.0
-0.9047530630907038, -1.2002712210471147, -1.022744834586397, 672469000000.0
0.9155768922115248, -1.0873868911391715, -1.0227934333581448, 672474000000.0
0.03765498784239951, -1.105562999208016, -1.0207243173233722, 672479000000.0
0.015881333771905884, -1.1557940322924978, -1.0172708728823887, 672484000000.0
0.010390715828045623, -1.121240062237589, -1.0143162985969834, 672489000000.0
-0.13606262643502176, -1.1322623571531072, -1.0140550771072034, 672494000000.0
0.14789282399960788, -1.0788898333691295, -1.012610289122321, 672499000000.0
0.05778923385441112, -1.0767027959810969, -1.0098541799039975, 672504000000.0
0.018392414343676264, -1.1418347448783865, -1.007461316834148, 672509000000.0
0.012620885976260925, -1.037185755051638, -1.0046506435962208, 672514000000.0
-0.007514430099971267, -1.187708977152137, -1.002351431476372, 672519000000.0
0.008090284631683552, -1.1170056882206838, -1.0005276165700545, 672524000000.0
0.008496950083994754, -1.0936707539752144, -0.9981888545322091, 672529000000.0
0.017738967109928103, -1.12006126841477, -0.9962204891798827, 672534000000.0
0.052572957415887855, -1.0800968112168858, -0.994142192272713, 672539000000.0
0.011873232237536176, -1.1260503247924223, -0.9926997789380531, 672544000000.0
0.018942145325873697, -1.1137556162293991, -0.9912895068482724, 672549000000.0
0.010265518888485354, -1.0780769850826393, -0.9899265562322318, 672554000000.0
0.026046337065297038, -1.084024945345197, -0.9887475338237242, 672559000000.0
0.03040636448176466, -1.0640473578571614, -0.987875016904362, 672564000000.0
0.005709256842379613, -1.1203314477172448, -0.9865567339651019, 672569000000.0
0.006764269731634834, -1.1150729313346492, -0.9861377848895497, 672574000000.0
-0.003438926744494395, -1.092219172063298, -0.9848835405910399, 672579000000.0
0.0075564449125687825, -1.099754880500617, -0.9841901011405124, 672584000000.0
0.011784104330064481, -1.0996577059272041, -0.9833629558881813, 672589000000.0
0.004877275881783355, -1.1204541532787062, -0.9831139593261888, 672594000000.0
0.04336652194638789, -1.060904025819327, -0.9826815692060877, 672599000000.0
0.044129542919541055, -1.0373754529403751, -0.9824817227751305, 672604000000.0
0.024247411195079963, -1.0519335760966637, -0.982811355716432, 672609000000.0
-0.0051665958195164716, -1.0309995454348062, -0.9830086250585722, 672614000000.0
0.028253093656566183, -1.0639359665774386, -0.9836913381428499, 672619000000.0
0.017641746275720183, -1.0083960644763086, -0.9848157631948365, 672624000000.0
0.016589427583551197, -1.0406322520211129, -0.9854992679027548, 672629000000.0
0.013578497735661423, -1.0637471400092495, -0.9865958849200962, 672634000000.0
0.016720517536611006, -1.1386018281422323, -0.9877702420739647, 672639000000.0
0.031914527440456836, -1.1141710425764624, -0.9884441280017738, 672644000000.0
-0.011216707830067101, -1.0918626393755044, -0.9892725092864251, 672649000000.0
-0.000468466205306748, -1.0881504014353767, -0.9898306689338026, 672654000000.0
-0.01977202788120146, -1.1104153882953611, -0.9902781518317775, 672659000000.0
-0.02822934769047692, -1.1160484497616836, -0.9910674494664603, 672664000000.0
0.038639141423082335, -1.1006300658692645, -0.9916949633432761, 672669000000.0
0.01861934985742207, -1.0663180244181503, -0.9919871053130592, 672674000000.0
0.018537004083321686, -1.0822401362244156, -0.991891006716247, 672679000000.0
0.02606892253348537, -1.1159522126024033, -0.9928151030794468, 672684000000.0
0.020860181625415333, -1.1025327015428408, -0.9926029512299094, 672689000000.0
-0.022167808417954776, -1.0754556025874205, -0.9932267394200935, 672694000000.0
0.004767097851967975, -1.12697290119181, -0.9936040345053209, 672699000000.0
-0.016614673076139074, -1.0860795238510073, -0.993761851777432, 672704000000.0
0.0244958381597363, -1.0903423065849758, -0.9947107154334145, 672709000000.0
-0.0243762036266391, -1.1232997689729065, -0.9944910985866442, 672714000000.0
0.010038678444088027, -1.0742580850541956, -0.9949277411128672, 672719000000.0
0.0002698369198712268, -1.0816178836868948, -0.9950671144918736, 672724000000.0
0.012689711131493055, -1.1143759482233804, -0.9956060919144439, 672729000000.0
0.04599655136914438, -1.1111660602914306, -0.9954425870622836, 672734000000.0
0.0065699436782390664, -1.112761209668486, -0.9956013796064677, 672739000000.0
0.04544940194439567, -1.0773839405485262, -0.9954317809797639, 672744000000.0
0.002877415778545142, -1.1349132273448246, -0.9958118120627519, 672749000000.0
-0.00011572776457463053, -1.0649570445267718, -0.995267553255126, 672754000000.0
-0.008536986916375817, -1.0498781379086057, -0.9952766042840021, 672759000000.0
0.012772202745002325, -1.089268616659649, -0.9954237778011383, 672764000000.0
0.0016298374452256275, -1.083054878192372, -0.9951888891457052, 672769000000.0
0.02231145951206385, -1.123212666840225, -0.9951671237463919, 672774000000.0
0.01587376685852281, -1.1023734956630076, -0.9949365023214216, 672779000000.0
0.015587769149590584, -1.0987398001759188, -0.9951933799518705, 672784000000.0
-0.0022071443893337504, -1.1027976085544415, -0.9954241481132323, 672789000000.0
-0.02148412821428082, -1.068154514372196, -0.995574016668644, 672794000000.0
0.034103142708068496, -1.1069216743834611, -0.9957233879793314, 672799000000.0
0.0007828056656907431, -1.1196104158343032, -0.995667934377233, 672804000000.0
0.008739162146863183, -1.1269356285577754, -0.9957417124740364, 672809000000.0
0.020642219760854296, -1.1102794440885626, -0.9960099590540717, 672814000000.0
-0.00022009290760821067, -1.0858255986134626, -0.9963187252532625, 672819000000.0
0.02502269603167353, -1.0972978973549739, -0.996462697084165, 672824000000.0
0.0024499497190974356, -1.095648571797256, -0.9964835222678758, 672829000000.0
0.01119743209279319, -1.052918092571775, -0.99664115929292, 672834000000.0
-0.002171432391089362, -1.1159367306335943, -0.9969174792963195, 672839000000.0
0.03676812297623891, -1.0662131651909406, -0.9968317830607067, 672844000000.0
-0.003638134652473959, -1.121940628301079, -0.9967366540351761, 672849000000.0
0.004965904817816754, -1.1014102126641874, -0.9968615614742892, 672854000000.0
-0.025181298112985147, -1.085729720155812, -0.9970865838439891, 672859000000.0
-0.043234603221894, -1.1160255530851406, -0.9964422530309608, 672864000000.0
0.011167097606390388, -1.0950423670748306, -0.9961605505253467, 672869000000.0
-0.010045885082729094, -1.1035762818255472, -0.9960498983666551, 672874000000.0
-0.009108759593078861, -1.1061499187064465, -0.9959287787595795, 672879000000.0
-0.020943803273147828, -1.1354214171761188, -0.9955701959699513, 672884000000.0
-0.004122753074144273, -1.1000296181637454, -0.995910742598888, 672889000000.0
-0.007154821050605648, -1.1092460815903344, -0.9958066685100816, 672894000000.0
-0.02191878927368824, -1.1107424775219157, -0.9957635634870954, 672899000000.0
0.002018250912004229, -1.1251209769449646, -0.9958826853812991, 672904000000.0
0.018871187378837896, -1.0865148194174294, -0.9962506311158925, 672909000000.0
-0.006518908589524049, -1.1072343606907151, -0.9959343441700949, 672914000000.0
-0.028350291465305048, -1.0763459171711962, -0.9965543459799749, 672919000000.0
-0.004943160968438836, -1.0988956902256515, -0.9963221291776924, 672924000000.0
-0.010323992752888863, -1.107318153034413, -0.9964639286242514, 672929000000.0
-0.004863016877205964, -1.0870087104678996, -0.9960088570043788, 672934000000.0
0.030554988889833566, -1.047417493639121, -0.9954496101341322, 672939000000.0
-0.05674571618048945, -1.1315839032554227, -0.9954752542189853, 672944000000.0
0.06934798940319564, -1.1745776317513525, -0.9948547819141763, 672949000000.0
-0.011728189926014376, -1.0413207105063758, -0.9944089780322505, 672954000000.0
-0.026167752304244486, -1.1446532462525105, -0.9939566214547805, 672959000000.0
0.08596851034115767, -1.1644618364496087, -0.9936631013976833, 672964000000.0
-0.04328764087090761, -1.0421424836791067, -0.993026871241572, 672969000000.0
0.001639281657841267, -1.171180590248333, -0.9927306541248286, 672974000000.0
-0.00875145374475971, -1.084895356186841, -0.9918732840075791, 672979000000.0
-0.14987467516261607, -1.0401670502269487, -0.9917607439147973, 672984000000.0
0.10724015087371604, -1.165744132856837, -0.9916525094616334, 672989000000.0
-0.013416544414421035, -1.0909634549634375, -0.9909520147027983, 672994000000.0
-0.10080731299105482, -1.0539556727614119, -0.990943202232566, 672999000000.0
0.12339730481773285, -1.2094445041470714, -0.991515124579102, 673004000000.0
-0.02632318916591657, -1.136392178198574, -0.9909666654542805, 673009000000.0
-0.019305767448773728, -1.0764964168968965, -0.9906416396553487, 673014000000.0
0.0046115159623599696, -1.125639241292443, -0.9908871554493085, 673019000000.0
-0.022080251412510334, -1.1243812526834542, -0.9907316031627831, 673024000000.0
0.025316045499952568, -1.0951015036856278, -0.9905355058888313, 673029000000.0
-0.0475060663118108, -1.0799202117370161, -0.9903426256296067, 673034000000.0
-0.1494744682844547, -1.054803099435809, -0.99049495340704, 673039000000.0
0.10600400113662009, -1.192704597120127, -0.9901819420421134, 673044000000.0
-0.011216932102077803, -1.1037570704428283, -0.9896634303464295, 673049000000.0
-0.01731970361577558, -1.13056523752979, -0.9895965142051374, 673054000000.0
0.013025416405805464, -1.0856315424837721, -0.9894936169937647, 673059000000.0
0.0031529527535321053, -1.1102233891441977, -0.9889689132935815, 673064000000.0
-0.003878982578293621, -1.105672589366428, -0.9891193440192421, 673069000000.0
-0.02488127627078258, -1.0899630629473707, -0.9887936087095296, 673074000000.0
0.02232682081190611, -1.1066659401505659, -0.9884067180782735, 673079000000.0
-0.005539027389413467, -1.0963782424233786, -0.9882801627626895, 673084000000.0
-0.04776255786291153, -1.1232290787918677, -0.9885970654072469, 673089000000.0
-0.02601659040618198, -1.1094335762890493, -0.9881517734384837, 673094000000.0
-0.02972581878077521, -1.1107631393522386, -0.9883340561099473, 673099000000.0
-0.009603109448303618, -1.1058973050852883, -0.9880434303747427, 673104000000.0
-0.023125930078651852, -1.1171044174200557, -0.9880364464887288, 673109000000.0
-0.031556481214340605, -1.1185084329405317, -0.9883084705294282, 673114000000.0
-0.12618666521512356, -1.052266473201956, -0.9907572866666097, 673119000000.0
0.20468018205455402, -1.1041614601353662, -0.9917819123569837, 673124000000.0
-0.09127411238134459, -1.2063308692322436, -0.9916014655447856, 673129000000.0
-0.7549976413008241, -1.1210454883034882, -0.9931928636795344, 673134000000.0
0.6092426168054957, -1.0022731130240832, -0.9959468979738129, 673139000000.0
-0.5563345401379702, -1.2974494118667317, -0.9981678021813764, 673144000000.0
-0.02809425486916189, -1.0694038106863883, -1.001687825729952, 673149000000.0
-0.12481002624826346, -1.0168894807945323, -1.0077949914353583, 673154000000.0
-0.03203766132436346, -1.2007621757185352, -1.0124429196220874, 673159000000.0
-0.06880418891342495, -1.1449163657272512, -1.0161869239066155, 673164000000.0
0.10791046836078974, -1.2152802578945188, -1.0196238895938905, 673169000000.0
-0.2992100444242664, -1.0575000193407522, -1.022562439815619, 673174000000.0
0.01842475993875321, -1.1858078600382707, -1.02707334731127, 673179000000.0
-0.06990146552405267, -1.1982595491986932, -1.0295266639340048, 673184000000.0
0.15821326579601966, -1.2396892489972076, -1.0321689993547487, 673189000000.0
-0.2751351044826429, -1.0365609154147146, -1.0351178858413908, 673194000000.0
0.03249425954400387, -1.190017438451047, -1.0385044905949237, 673199000000.0
-0.06557800960775431, -1.1687034464040935, -1.0410629836417946, 673204000000.0
-0.020202775000609328, -1.190648819068678, -1.0434428779106117, 673209000000.0
-0.03403588032676353, -1.165880710457327, -1.0444711448772452, 673214000000.0
-0.06508634841175205, -1.1317039207453607, -1.0477830625155309, 673219000000.0
-0.0006221273133139513, -1.213988145499714, -1.0504460443680248, 673224000000.0
-0.029571678327580644, -1.1662024270463007, -1.051930625487565, 673229000000.0
-0.03286400896093569, -1.1854020487613568, -1.0533282092028171, 673234000000.0
-0.03357804286984211, -1.1857614675494579, -1.054975052351811, 673239000000.0
0.00025797372924836817, -1.1709021746328967, -1.056447339596049, 673244000000.0
0.017341752205993613, -1.1528939133315834, -1.0574746547137113, 673249000000.0
-0.08691484471172992, -1.2191980850251827, -1.0592603463794124, 673254000000.0
-0.03802234557699374, -1.2165763386475092, -1.0617973976402866, 673259000000.0
-0.0378595763381509, -1.2183811258542958, -1.0645960495143414, 673264000000.0
-0.012201728407554948, -1.1935718422957835, -1.0674886731608262, 673269000000.0
-0.027591699168423044, -1.1646535692795235, -1.0707668033202244, 673274000000.0
0.8276081421718184, -1.2234780488049193, -1.0721527914560203, 673279000000.0
-0.6668577196760831, -1.213917552549331, -1.069823401410722, 673284000000.0
-0.20856554028020735, -1.159948782646364, -1.0710089220627885, 673289000000.0
1.0337289544551995, -1.2385228303083697, -1.0701312484288408, 673294000000.0
0.061632627811863176, -1.2501499790444965, -1.0649280136807302, 673299000000.0
-0.07371028167649013, -1.1502086849363313, -1.0604350710969217, 673304000000.0
0.2220391891276571, -1.1407191343961844, -1.0530110752906616, 673309000000.0
-0.20807763463782675, -1.2287347881954849, -1.044235995811879, 673314000000.0
0.04476905277175752, -1.1492476438243313, -1.0376099210639254, 673319000000.0
-0.013474757061791607, -1.2794888185105135, -1.0326932366396515, 673324000000.0
-0.09072713519967197, -1.214383955038751, -1.026318519610661, 673329000000.0
0.12382729993411541, -0.9778087708236726, -1.0217350936711966, 673334000000.0
-0.09351415113169323, -1.1561281629282003, -1.0181635313957103, 673339000000.0
0.09734875914707482, -1.1063551640731455, -1.014362339846302, 673344000000.0
-0.0053721845971004155, -1.0852459130810301, -1.0119275742875173, 673349000000.0
0.11291195827067313, -1.1266089740461946, -1.0089134972898415, 673354000000.0
-0.10491134719302204, -1.114455639657002, -1.0059409719986039, 673359000000.0
-0.05374134608528018, -1.1068029506453751, -1.0039241448918017, 673364000000.0
0.1506395157221622, -1.194310794544809, -1.0022181827031087, 673369000000.0
0.003926780771833702, -1.0160013450625731, -1.000424491280742, 673374000000.0
-0.0626332417182167, -1.145349172243467, -0.9981069364390706, 673379000000.0
0.11914166914170356, -1.1762428862436016, -0.9978546069561743, 673384000000.0
-0.014570109993086625, -1.0733903419321311, -0.9960800391511581, 673389000000.0
0.02732810993266797, -1.2041984634925678, -0.9952678564980035, 673395000000.0
-0.12236928686773493, -1.0314767909092195, -0.9938735684364611, 673400000000.0
0.061935997735473494, -1.1085428515357143, -0.9930421065907774, 673405000000.0
-0.045298322013119216, -1.063208292170448, -0.9924922197066183, 673410000000.0
0.044494986515299095, -1.1488117672286713, -0.9917502155047342, 673415000000.0
-0.0002562266751312981, -1.1811661018136321, -0.9906435830446269, 673420000000.0
-0.10107360701797578, -1.0276712598411517, -0.98977323077498, 673425000000.0
-0.03535420835679913, -1.0743791424046178, -0.9892030755659564, 673430000000.0
0.11282807527592728, -1.2149949217275535, -0.9876716449319682, 673435000000.0
0.009028485072770778, -1.1087024108404038, -0.9869548405548302, 673440000000.0
0.03576402475255326, -1.1319859999093147, -0.9860075418638956, 673445000000.0
-0.06240159474432981, -1.0220325085505286, -0.9848059788980761, 673450000000.0
-0.00034607804602718867, -1.0949311226059746, -0.984357037892915, 673455000000.0
-0.034711715626562625, -1.0593651152052166, -0.9837569328969634, 673460000000.0
0.027648413055648517, -1.1119781962922226, -0.9835564359056788, 673465000000.0
0.04253561905585778, -1.0647434414267707, -0.9837723419466416, 673470000000.0
-0.04384646240021387, -1.1465620631436406, -0.9829490608484681, 673475000000.0
0.016740761193281252, -1.056117037257012, -0.983136060387187, 673480000000.0
-0.01825911302602381, -1.1269140294158555, -0.9826836756657105, 673485000000.0
-0.006737278933872749, -1.0450666544599014, -0.9828895239360493, 673490000000.0
0.011604612717581635, -1.102125643876604, -0.9822020185539206, 673495000000.0
-0.057225901438771376, -1.0800581191589735, -0.9820905648862378, 673500000000.0
0.011088352391763912, -1.1072736515645523, -0.9813865652689584, 673505000000.0
-0.033348962978126034, -1.060293526071416, -0.980678764625173, 673510000000.0
-0.03903256538763128, -1.1234763529441936, -0.9799316529460531, 673515000000.0
0.00169544786114143, -1.075872123896248, -0.9789339524966424, 673520000000.0
-0.039656890563017556, -1.0452706405782282, -0.9779569291233133, 673525000000.0
-0.008416586338489133, -1.058588948089203, -0.9772096170633148, 673530000000.0
0.01831500792672462, -1.130093820299755, -0.9765202248068996, 673535000000.0
-0.04625872947258749, -1.0203013214019416, -0.9753636869593776, 673540000000.0
-0.03522703742820943, -1.0874991455923377, -0.9750249294318378, 673545000000.0
-0.0786916703856469, -0.9998968124887526, -0.9742227272712461, 673550000000.0
0.020353138666712577, -1.054430721507088, -0.9736407012400148, 673555000000.0
0.012515445704687864, -1.0749309125783693, -0.9732376116728435, 673560000000.0
-0.023739471827716845, -1.040248320984733, -0.9733098816727783, 673565000000.0
0.012814309389711745, -1.0913391762878533, -0.9730763532360936, 673570000000.0
-0.049862771165707795, -1.0239243314031135, -0.9729275823834425, 673575000000.0
-0.029549487397050173, -1.0983257306540017, -0.9728972339448001, 673580000000.0
0.00623062223158637, -1.0569903878824853, -0.9730732795985756, 673585000000.0
-0.026058477883108708, -1.0788147647003123, -0.97309640267185, 673590000000.0
-0.027802145457684238, -1.051403776346304, -0.9735225570964153, 673595000000.0
0.001694979514647435, -1.0769264219901817, -0.9736920912592419, 673600000000.0
-0.06091182266262108, -1.0448718920681086, -0.9740228287723689, 673605000000.0
-0.06639061008111524, -1.0429279262784619, -0.974182253359539, 673610000000.0
0.04780311798093377, -0.9589042078598021, -0.9752456206107949, 673615000000.0
0.11992836132754879, -1.170689764377243, -0.9762353698214634, 673620000000.0
-0.1466095646299929, -1.107230038847945, -0.976426227201727, 673625000000.0
0.10150606456420963, -1.0445970320105036, -0.9767967397728743, 673630000000.0
-0.11293981973018276, -1.0600312134227126, -0.9775767721372719, 673635000000.0
0.12390688912456214, -1.1347352789677256, -0.978082579570745, 673640000000.0
-0.12558381798902418, -1.0659988482284852, -0.9782598509058303, 673645000000.0
0.11930021278139669, -0.9776823597661758, -0.9787161965485413, 673650000000.0
-0.11929149156656604, -1.1058756045726192, -0.9791620875572302, 673655000000.0
-0.0673608770705758, -1.1608290138035324, -0.9797509781689331, 673660000000.0
0.03450842836645357, -1.0412515611137898, -0.9806291693459926, 673665000000.0
-0.18621692188822242, -1.055384613104656, -0.9812101730626541, 673670000000.0
0.07155475479840491, -1.0898116430602793, -0.9820798513284963, 673675000000.0
0.06178886253054798, -1.0607451250130704, -0.9828006913587458, 673680000000.0
-0.08789085507621211, -1.060545206771735, -0.9829634917073422, 673685000000.0
-0.0031385025598155286, -1.1657261521347824, -0.9837414622977647, 673690000000.0
0.011619117053625585, -1.0590371183704248, -0.983550969987804, 673695000000.0
-0.11359236210383573, -1.0419252696625378, -0.9835629056199955, 673700000000.0
-0.030412941120164273, -1.1218134830604463, -0.9843370419224625, 673705000000.0
0.03415173555626658, -1.077232327858291, -0.9848852977624772, 673710000000.0
-0.1534915636140516, -1.1163690841247225, -0.984499789683741, 673715000000.0
-0.028115221848956096, -1.0557982801593584, -0.9845366950491414, 673720000000.0
0.0919529743592383, -1.0643613763853603, -0.9849830150844697, 673725000000.0
-0.19068713470040197, -0.998442372851089, -0.985118224755474, 673730000000.0
0.07724260587664933, -1.134882285556986, -0.9848918518519345, 673735000000.0
0.08460060097807252, -1.1069255179930038, -0.984938942032585, 673740000000.0
-0.2315971820173585, -1.0560324854369532, -0.9847984188265927, 673745000000.0
0.046088387995573014, -1.082043215017169, -0.9850283220486529, 673750000000.0
0.028971228167804917, -1.0342134753125571, -0.9851046730391301, 673755000000.0
-0.12498514570893524, -1.139983306315093, -0.9850458018342482, 673760000000.0
0.03131301872439982, -1.0692300104149193, -0.9847370063913595, 673765000000.0
0.0663915605260836, -1.0810457953218513, -0.9848333727145597, 673770000000.0
-0.19913562157926598, -1.1017575030627824, -0.9842627688124193, 673775000000.0
0.006211330145750923, -1.0649791934895076, -0.9844117446846843, 673780000000.0
0.13286655301826827, -1.0434423105297805, -0.9842840367560645, 673785000000.0
-0.2686844844446707, -1.1231641931510181, -0.9843638027283806, 673790000000.0
0.09948254149003331, -1.0867678853546343, -0.9846218075167548, 673795000000.0
-0.07759851061842025, -1.0888764982619987, -0.9847087871811909, 673800000000.0
-0.03845037942472093, -1.0498005543057507, -0.9842839496602144, 673805000000.0
-0.0061927150329213684, -1.1010015640418416, -0.9843817855181197, 673810000000.0
-0.03450577564115731, -1.1006537569633166, -0.9846530686117659, 673815000000.0
0.12099095734120283, -1.0167459322802999, -0.9843529919248011, 673820000000.0
-0.24677196872365736, -1.1581622011782167, -0.9830528420424974, 673825000000.0
0.06227912806168187, -1.0360751929165364, -0.9834402268766108, 673830000000.0
-0.0035013420956383837, -1.0485884442388864, -0.9838215232446154, 673835000000.0
-0.00671646013848709, -1.0514128569736072, -0.9829743327694557, 673840000000.0
-0.07826309447084302, -1.1519868653186254, -0.9824131516314323, 673845000000.0
-0.03345215400909273, -1.068895368756095, -0.9824330074342065, 673850000000.0
-0.08840067788901565, -1.048469914203292, -0.9827488708675542, 673855000000.0
0.18240421085452363, -1.042791191799393, -0.9819546127090766, 673860000000.0
-0.2141437952560948, -1.1119891895526572, -0.9803952391143885, 673865000000.0
-0.0859495835344684, -1.1345879419006508, -0.9809137343043924, 673870000000.0
-0.06792899748744792, -1.0619786671038365, -0.9810920401983698, 673875000000.0
0.08094443171836613, -1.0035031670411492, -0.9812018359520956, 673880000000.0
-0.09693492715483275, -1.1680759571238384, -0.9805266098744952, 673885000000.0
-0.061373167408037686, -1.0908563521593673, -0.9809036249911114, 673890000000.0
-0.01112164327622317, -1.0855849640427873, -0.981261431409056, 673895000000.0
0.030400138745736324, -1.005518693146913, -0.9812675967890899, 673900000000.0
-0.2027272010260286, -1.2023286244684492, -0.9806888794633644, 673905000000.0
0.03868661602241981, -1.0704263679597767, -0.9808405044182041, 673910000000.0
-0.03786754945419662, -1.090162043946087, -0.9816114824600101, 673915000000.0
-0.04744584248694022, -1.0308470319989707, -0.9815227964473464, 673920000000.0
-0.16804334864055345, -1.1342012992932513, -0.9814277177605644, 673925000000.0
0.12857718163803483, -1.093305765219327, -0.9816237838507753, 673930000000.0
-0.040766992812937886, -1.0693968402601626, -0.981620644378276, 673935000000.0
3.028461743136146e-05, -1.0431361978555096, -0.9822482200359955, 673940000000.0
-0.17240386976572036, -1.1158130046996553, -0.9823664085060079, 673945000000.0
0.106333762424626, -1.0662865950371412, -0.9826178532985475, 673950000000.0
-0.04427759734041407, -1.089230329350836, -0.983172665873998, 673955000000.0
-0.12694480264739075, -1.0604718306888714, -0.9829901302499177, 673960000000.0
0.06944109042135997, -1.1108588435410505, -0.9832311053847801, 673965000000.0
-0.005562285256436074, -1.0938192410074739, -0.9834969751959851, 673970000000.0
-0.04355907582666583, -1.0879624220879265, -0.9839024926400235, 673975000000.0
-0.1295732827439817, -1.159187557267756, -0.9834421974297093, 673980000000.0
0.09106249629765224, -1.0336257406119453, -0.9837349678879475, 673985000000.0
-0.04644831731966773, -1.080656592087417, -0.984365004918383, 673990000000.0
-0.1161814134506189, -1.0624460787227745, -0.9836919951821841, 673995000000.0
0.062193486488706685, -1.0919258889824794, -0.983434696019548, 674000000000.0
-0.04825118268085911, -1.1030833856478233, -0.9839303489842988, 674005000000.0
-0.13152740086923198, -1.1232795468120045, -0.983553275867819, 674010000000.0
0.10246014453016489, -1.0474229576204428, -0.9832933249595848, 674015000000.0
-0.033624241024988136, -1.101203510641885, -0.9836003357223742, 674020000000.0
-0.11083886473870981, -1.0967369347402547, -0.9832573273999995, 674025000000.0
0.09733812037172006, -1.0363334837870926, -0.9834149351628398, 674030000000.0
-0.007903870049838457, -1.1051685659705273, -0.9835538397564928, 674035000000.0
-0.13826633396452973, -1.1643385057422229, -0.9830989878356001, 674040000000.0
0.10869739590517208, -1.0216723755599495, -0.9836445103336379, 674045000000.0
-0.16309695499051505, -1.1176687904597782, -0.9836756229696192, 674050000000.0
0.027637642373718383, -1.1125043188901462, -0.9835454674550924, 674056000000.0
0.00075241791387806, -1.0595254397164455, -0.9835053547047157, 674061000000.0
-3.0132943463589794e-05, -1.1762436750587673, -0.9834895464524099, 674066000000.0
-0.1139839358492857, -1.0406271073127888, -0.9836575010649222, 674071000000.0
0.03857854765108633, -0.99805293802231, -0.9832156134517347, 674076000000.0
0.012407495109950217, -1.1916277385339171, -0.9832536008230612, 674081000000.0
-0.10371620266609573, -1.0837474777903888, -0.9822788188438905, 674086000000.0
0.05741708980804923, -0.9988779497672533, -0.9825664238191689, 674091000000.0
-0.04412973313254898, -1.2019414848036083, -0.9824767472341565, 674096000000.0
-0.07077003343443089, -1.1102314260577415, -0.9815670390976572, 674101000000.0
0.07150229255529034, -0.9540512350458208, -0.9820310315347367, 674106000000.0
-0.07273418150074897, -1.3000065965171397, -0.9818580204243521, 674111000000.0
-0.05102165399896004, -1.1018317898114138, -0.9812962516697941, 674116000000.0
0.10155255629296531, -0.8874816002814656, -0.9814390664701351, 674121000000.0
-0.1233688919185885, -1.1404451816357113, -0.9818979376907142, 674126000000.0
0.010333841523447978, -1.0772130619719125, -0.9819392282495707, 674131000000.0
0.08214589125901638, -1.078593188869469, -0.9825338539252098, 674136000000.0
-0.014230718783153613, -1.0560932187613752, -0.9829636361702538, 674141000000.0
-0.043740162468861435, -1.078498857577871, -0.9838592837387079, 674146000000.0
-0.0202680676883395, -1.0830215963265881, -0.985041476246482, 674151000000.0
-0.659041985539389, -1.0230227503954068, -0.9887952405548942, 674156000000.0
0.32241002815253655, -1.161085026404839, -0.9940850396568284, 674161000000.0
0.38996689976217336, -1.1661966867676112, -0.9985130773965176, 674166000000.0
-0.6867252327695791, -1.073044568642657, -1.0013075954475776, 674171000000.0
0.01462440858757531, -1.123041414104697, -1.0066313967670726, 674176000000.0
0.6693884932029438, -1.2052393856595016, -1.0096783481970164, 674181000000.0
-0.674399996867564, -1.0744538957902117, -1.0126319995061486, 674186000000.0
0.05298150480363942, -1.1205785142075635, -1.0160584541454658, 674191000000.0
0.7744990405629884, -1.195010408605043, -1.0180574262830258, 674196000000.0
-0.854582338925426, -1.0626086093235092, -1.0196440229716992, 674201000000.0
0.01562639251641338, -1.1271989506007214, -1.0236011596285222, 674206000000.0
0.8331188335381514, -1.1972059766451972, -1.0233839098419222, 674211000000.0
-0.8522663673445876, -1.0722696801384606, -1.0258733188268023, 674216000000.0
0.015530038368676361, -1.1677436777904915, -1.0293247835969648, 674221000000.0
0.9049096986912849, -1.2035970894223884, -1.0310395125227052, 674226000000.0
-0.9289980216252979, -1.1101911832859575, -1.031062480624336, 674231000000.0
0.015948320033855625, -1.1386140521295027, -1.0333501137405865, 674236000000.0
0.7981197948990375, -1.2185854986418134, -1.0361303883594832, 674241000000.0
-0.6728022278148897, -1.1170866656364302, -1.035360316130209, 674246000000.0
-0.1822237290696546, -1.1308325001675406, -1.0380252530437244, 674251000000.0
0.8840077420787659, -1.2206522269544235, -1.0401485245545505, 674256000000.0
0.0784095946433486, -1.16236517455617, -1.038684434994029, 674261000000.0
-0.9274835395811942, -1.0530202120308572, -1.0405511175091988, 674266000000.0
0.7751034292341522, -1.2124626824216485, -1.0431385572645204, 674271000000.0
0.09465065092061645, -1.1465876083637312, -1.0413940014747896, 674276000000.0
-0.9221066959440944, -1.121617993771116, -1.041825861137376, 674281000000.0
0.09858773278993344, -1.15352340191146, -1.044576873069754, 674286000000.0
0.8909207731128088, -1.2094380730099874, -1.042462637650527, 674291000000.0
-0.9179104984762047, -1.1214464015159962, -1.0418984412187822, 674296000000.0
0.04904914404404197, -1.1413913326813936, -1.0443322499063568, 674301000000.0
1.0493444082505168, -1.2191213286723328, -1.0413957670330003, 674306000000.0
-0.7972593762230308, -1.1492089139376103, -1.038967105071166, 674311000000.0
-0.17703793179592564, -1.1287031368201843, -1.0411782881185423, 674316000000.0
1.0545747213102536, -1.2200686252682074, -1.0376831526234065, 674321000000.0
-0.8291487133120211, -1.1375046678427532, -1.0358801358681535, 674326000000.0
-0.1996793014553021, -1.1131181140867064, -1.0374392896081908, 674331000000.0
0.8453957553779858, -1.205751896188238, -1.03388346464758, 674336000000.0
-0.01747675332850858, -1.146080359921155, -1.0311674854812627, 674341000000.0
-0.9645500543424751, -1.081253429048583, -1.0334211088873457, 674346000000.0
0.8819732305172365, -1.2023377780917177, -1.031740129879674, 674351000000.0
0.11688527850891332, -1.1724255031602953, -1.0295621760958977, 674356000000.0
0.043492005034524245, -1.1715613095009079, -1.0269653626690802, 674361000000.0
-0.1337014755378215, -1.1179070494868957, -1.0291119610292159, 674366000000.0
0.07759075160335796, -1.1490157322204684, -1.0270119364342125, 674371000000.0
0.0988530593597961, -1.1661588390957995, -1.0250887739196208, 674376000000.0
0.07108921480022301, -1.1363376578464748, -1.0232478356726349, 674381000000.0
-0.6877475896326444, -1.078588525828158, -1.0215996250631696, 674386000000.0
0.8010962538153504, -1.149952620279883, -1.0217934318855908, 674391000000.0
-0.03941547410640399, -1.1368057057254652, -1.0197736515044244, 674396000000.0
-0.008447068913477834, -1.1542469230003045, -1.0178595430099253, 674401000000.0
0.022879782129632244, -1.1211259883050801, -1.0159811262743568, 674406000000.0
0.023564116894097265, -1.1213874161901922, -1.0145666256541688, 674411000000.0
0.005944694136658532, -1.1505088444407792, -1.0129310621068468, 674416000000.0
0.014567848027164949, -1.1295115074772126, -1.0117388490770851, 674421000000.0
0.0026406959916528312, -1.1376032324211305, -1.0102471651591376, 674426000000.0
0.028563714463612267, -1.0995845846660368, -1.008647146418494, 674431000000.0
-0.008869043364971688, -1.0952629847376283, -1.00739192549764, 674436000000.0
0.049521627666918255, -1.113681150808098, -1.0071134513281526, 674441000000.0
0.0165835931000892, -1.0876358628929654, -1.0054227742607336, 674446000000.0
0.04352487895767339, -1.1279244612710855, -1.0040366609761389, 674451000000.0
0.017056509651676523, -1.117470385197938, -1.0033557265736224, 674456000000.0
0.025999451365073045, -1.1105803014053353, -1.0025090834612582, 674461000000.0
0.030927541738859025, -1.144412152879929, -1.0018327782161596, 674466000000.0
0.004663401872553968, -1.099831256259665, -1.000697467444803, 674471000000.0
0.01756465111218049, -1.1346157848987475, -1.0006999665857697, 674476000000.0
0.03345017786035669, -1.1231928569367375, -0.9998147761393166, 674481000000.0
0.028267947319123576, -1.1375527608927338, -0.9988265724200517, 674486000000.0
0.0555878524358675, -1.1188628658887163, -0.9986288950490848, 674491000000.0
0.01933290355250003, -1.11950701016203, -0.9980851467640485, 674496000000.0
0.032100524420670795, -1.1118789755548368, -0.9977481414852132, 674501000000.0
0.028819089548536035, -1.0810382148464726, -0.997896357490999, 674506000000.0
0.03167364284834019, -1.1069555227592318, -0.9975355655933962, 674511000000.0
0.002578112354669218, -1.1139695854886682, -0.9975734297054049, 674516000000.0
0.037070202132459554, -1.1162065368866632, -0.9972403973137526, 674521000000.0
0.02889692422148436, -1.0896423681517458, -0.9968490534351421, 674526000000.0
0.0623445303972926, -1.0910288147280192, -0.9968885953470674, 674531000000.0
-0.0026286744522540477, -1.0914737263408913, -0.997049476452731, 674536000000.0
0.01330641203670334, -1.1233704436942749, -0.9970814256192105, 674541000000.0
0.02423174345540576, -1.1105628571404424, -0.9967126210226013, 674546000000.0
-0.6025763215168137, -1.0947891221836807, -0.9972726229755151, 674551000000.0
0.7201756865149784, -1.091095601499612, -0.9981097113365679, 674556000000.0
-0.05383730585754169, -1.1508721438011722, -0.9975601431993945, 674561000000.0
0.004974232559824314, -1.140350560427204, -0.9973001006388342, 674566000000.0
-0.6021405723210067, -1.0488896056115833, -0.9979020553568325, 674571000000.0
0.6281049694474562, -1.135360927919291, -0.999476565437698, 674576000000.0
0.10093754754124531, -1.16233211832804, -0.9998403222483677, 674581000000.0
-0.02108620118434048, -1.1202976150151915, -0.9992799979683595, 674586000000.0
-0.7917662408812439, -1.0612902305559282, -1.000948652525963, 674591000000.0
0.8101553571391295, -1.1418910340990103, -1.0026718605686797, 674596000000.0
0.02135504294875746, -1.174778860791454, -1.0032805831513323, 674601000000.0
0.025812633440238535, -1.1005143555929429, -1.0020835663004983, 674606000000.0
-0.7330892321541577, -1.041988085084482, -1.0058630451692583, 674611000000.0
0.8787072299117304, -1.1755525630672312, -1.0068832752754033, 674616000000.0
-0.016420684862692284, -1.175081344855946, -1.006786862965147, 674621000000.0
-0.8128327688396528, -1.1041074112809972, -1.007814509064909, 674626000000.0
0.7692672223064606, -1.1310089873885112, -1.0106455014320823, 674631000000.0
0.13705001478776577, -1.1220463603928577, -1.0100482661102435, 674636000000.0
-0.6983680592045711, -1.1261777771503743, -1.0101886134464495, 674641000000.0
0.46760617628620155, -1.098003669456641, -1.013097297581581, 674646000000.0
0.27130378448543596, -1.2007794221451944, -1.0132086193681882, 674651000000.0
-0.700368431143013, -1.0971236871038539, -1.013520588411362, 674656000000.0
0.8042524872818186, -1.1511904060810974, -1.0157468145864592, 674661000000.0
0.056817202032615484, -1.1116685385301266, -1.0149072157117123, 674666000000.0
-0.8524740304687569, -1.0838058339062864, -1.0162274456530331, 674671000000.0
0.8014533354806432, -1.1219922751620448, -1.0185241653679267, 674676000000.0
0.12339109550152053, -1.1781725385325634, -1.0177607846165617, 674681000000.0
-0.8521315270642901, -1.1078355816067684, -1.0176884822710595, 674686000000.0
-0.03415449715923549, -1.1148792017479845, -1.021276509839371, 674691000000.0
0.9670592953193554, -1.165397773803382, -1.0210127631209316, 674696000000.0
-0.013155785266619374, -1.1388245483765846, -1.0197754362232212, 674701000000.0
-0.8817476714571283, -1.0805322915814206, -1.0220770342239285, 674706000000.0
0.8814681553433947, -1.1837573132007577, -1.022316179403899, 674711000000.0
-0.676757531879565, -1.1009354919472798, -1.0221707595317286, 674716000000.0
-0.17868247347032484, -1.0834864225961813, -1.0248731925734778, 674721000000.0
0.8934229952165745, -1.1785431550618413, -1.024397801126933, 674726000000.0
-0.7012758730484903, -1.1079301740894416, -1.023113686674461, 674731000000.0
-0.19828394535228586, -1.0857368837477843, -1.026187071933647, 674736000000.0
0.9303961155044908, -1.1871429038737484, -1.02537463266183, 674741000000.0
-0.7457210084533222, -1.1201433687363824, -1.0247116894250998, 674746000000.0
-0.18992411670283135, -1.107075335088851, -1.0271350769782206, 674751000000.0
0.9378237852490792, -1.1712113739016667, -1.0258210228094098, 674756000000.0
0.005062502351959778, -1.1478807257284356, -1.0235405583441883, 674761000000.0
-0.9030297096442648, -1.0962039641003238, -1.0266242350505952, 674766000000.0
0.9352615593743345, -1.1460832773638572, -1.0259370687739076, 674771000000.0
-0.01145010755439706, -1.1712268781654256, -1.024089790037021, 674776000000.0
-0.8820803317787126, -1.0939278219216386, -1.026524561932719, 674781000000.0
0.9167750534999164, -1.1562071374321738, -1.0245545308251538, 674786000000.0
-0.7836512806397674, -1.1291998972912456, -1.022571893228813, 674791000000.0
0.5477265809186603, -1.119405556722578, -1.0241595348973498, 674796000000.0
0.20866102965556735, -1.1310880029911923, -1.0223268769308866, 674801000000.0
-0.9009898691276228, -1.1148815998192072, -1.022052139331066, 674806000000.0
0.9351580063036782, -1.142442376211491, -1.0229610960708213, 674811000000.0
-0.0011893115073066327, -1.1258304614710908, -1.0211662270387272, 674816000000.0
-0.9158432529347261, -1.107291928782217, -1.0206343465841223, 674821000000.0
0.9006886955064546, -1.1462764392184588, -1.0222887653552508, 674826000000.0
0.02801130777234179, -1.1566234484721691, -1.0202760766855459, 674831000000.0
0.06571472933239686, -1.1776495356114296, -1.0186204884472068, 674836000000.0
-0.0721556887824251, -1.0858963882550268, -1.0154823146415346, 674841000000.0
-0.08248612442765556, -1.0519225635579001, -1.0128238672639887, 674846000000.0
0.10410570736941581, -1.2189240325333621, -1.0101064417843315, 674851000000.0
-0.021588582957706676, -1.0839621145770528, -1.007541105922622, 674856000000.0
-0.09071752404972921, -1.138431774014454, -1.005646083828259, 674861000000.0
0.10586848949878103, -1.1638321668501501, -1.0035098841827694, 674866000000.0
-0.0037544620711369887, -1.0993100027491571, -1.0015779921709145, 674871000000.0
-0.17573920540889776, -1.0882637204130723, -0.9999043185642748, 674876000000.0
0.08976268011671037, -1.1658033624318704, -0.9987214222946138, 674881000000.0
0.06503832554544646, -1.0986912311667811, -0.9970743917752944, 674886000000.0
-0.18140871431154526, -1.0881702987009845, -0.995533219939126, 674891000000.0
