acc_x, acc_y, angular_z, stamp, 
[-0.1894721306397873, -3.322523499306408, -3.317127614708929, 614630000000.0]
[0.08436432142433224, -3.4793652124428855, -3.318437399246029, 614635000000.0]
[0.1688928182216705, -3.4805332718305597, -3.3185547808494995, 614640000000.0]
[-0.27555924280522354, -3.33574370439831, -3.3195092920154905, 614645000000.0]
[0.11999691317125141, -3.4564641898482, -3.3210732968268477, 614650000000.0]
[0.25837717544916233, -3.5165646576706284, -3.3213658884220987, 614655000000.0]
[-0.22689501125551376, -3.30341291480747, -3.3222950021719893, 614660000000.0]
[0.07400629151662204, -3.456342886467724, -3.323276613906461, 614665000000.0]
[0.23519893042891046, -3.496444854455857, -3.323877469175759, 614670000000.0]
[-0.23568657843578725, -3.3599579161591793, -3.323797233502315, 614675000000.0]
[0.020742482858180075, -3.396206919631641, -3.324912594561507, 614680000000.0]
[0.21964374477698068, -3.5083916953585796, -3.3251330008226345, 614685000000.0]
[0.020640981493158073, -3.406687593927094, -3.324369643147285, 614690000000.0]
[-0.2543265507483721, -3.37219242097762, -3.3240696828347955, 614695000000.0]
[0.10513835704690164, -3.4751038936792025, -3.324600427982144, 614700000000.0]
[0.19415191693034656, -3.4616106885721094, -3.3233654994007797, 614705000000.0]
[-0.27199830512103096, -3.4074025621078614, -3.3226845810559325, 614710000000.0]
[0.12675003931456433, -3.454947033949646, -3.3232049730308084, 614715000000.0]
[0.25053708457718754, -3.5171460362421203, -3.3224138753588677, 614720000000.0]
[-0.2842205607950119, -3.3776968786029897, -3.3222433298687455, 614725000000.0]
[0.09099921689764615, -3.4347384877660745, -3.322957086246953, 614730000000.0]
[0.2504499513155673, -3.4922314400367136, -3.322481284206971, 614735000000.0]
[-0.3252288311455849, -3.391398494587086, -3.323404914380503, 614740000000.0]
[0.07663522459498354, -3.4315407982481005, -3.324171392955311, 614745000000.0]
[0.188043627451151, -3.4386562577869473, -3.3242397283547396, 614750000000.0]
[-0.04224153257215398, -3.4210973694030145, -3.323951877413348, 614755000000.0]
[-0.19053532530934478, -3.4790084714822975, -3.324606074933062, 614760000000.0]
[0.2735053201779411, -3.489069432617052, -3.325040779384266, 614765000000.0]
[0.06959163574130264, -3.4402626338634965, -3.324701733378356, 614770000000.0]
[-0.2679501077528987, -3.409677016555552, -3.324605929618935, 614775000000.0]
[0.0978303543079939, -3.458870489819227, -3.324935520846536, 614780000000.0]
[0.2681544265696481, -3.4236667097210742, -3.3243465414024387, 614785000000.0]
[-8.32969703311558, -3.481413420448297, -3.269589240402084, 614790000000.0]
[-20.18131620719058, 1.7285215054601828, -3.1130807376784286, 614795000000.0]
[-0.5262459965779375, -4.056750831510254, -2.9631855033255543, 614800000000.0]
[3.07364016259072, -5.15835420009804, -2.841515394362097, 614805000000.0]
[-0.41464073736612367, -2.118673812428856, -2.6619200025253935, 614810000000.0]
[3.045339663621527, -3.2775124808407083, -2.5220728866599984, 614815000000.0]
[3.9054063383228663, -4.19262916781036, -2.381489254709857, 614820000000.0]
[2.535474560861568, -2.0840349167432266, -2.251814436984661, 614825000000.0]
[1.5245991045274054, -1.812874691358373, -2.13633113623187, 614830000000.0]
[1.1620050442557517, -1.8193484835010405, -2.027332366458845, 614835000000.0]
[0.7262197306821391, -2.0261042574862533, -1.9234307061317952, 614840000000.0]
[0.5697506385121858, -2.0100072988350606, -1.824275641100776, 614845000000.0]
[0.4898675972922623, -1.9045985088356214, -1.729925144172736, 614850000000.0]
[1.311312213214614, -1.3953645965777655, -1.6409288682687262, 614855000000.0]
[0.8298642737445331, -1.6096221346868558, -1.558417476535193, 614860000000.0]
[0.5558083187873435, -1.6951095210482912, -1.4806295356907413, 614865000000.0]
[0.46893432319210215, -1.6096768146724363, -1.4061751943117855, 614870000000.0]
[0.509469869350496, -1.4930104517988083, -1.3350357688677383, 614875000000.0]
[0.5711618227377498, -1.3566375515212872, -1.2675007297434902, 614880000000.0]
[0.5468723876760241, -1.2985793543600463, -1.2035439719035952, 614885000000.0]
[0.5174059888266659, -1.2298856321190093, -1.1423404693090713, 614890000000.0]
[0.4810759783938841, -1.2047076511498942, -1.0847834004306949, 614895000000.0]
[0.4557903804666722, -1.092228625736156, -1.0200019895029377, 614900000000.0]
[0.40215078783627933, -1.0753832656316649, -0.9779777442881464, 614905000000.0]
[0.3913081949382414, -1.0621821642793268, -0.9286738895570348, 614910000000.0]
[0.34315569057044204, -1.0321730701498835, -0.8724789585979342, 614915000000.0]
[6.344862772393036, -0.908222363232432, -0.816811548599523, 614920000000.0]
[-4.682807032991839, -0.8059699761199419, -0.7731237572861933, 614925000000.0]
[0.7471368696415435, -0.8089629315643809, -0.7414280087006833, 614930000000.0]
[0.25554106137685895, -0.9974221110469033, -0.6969025950633957, 614935000000.0]
[3.9556025614610832, -0.8827687526847663, -0.6450381404947464, 614940000000.0]
[-3.725281303249472, -0.5568708959412161, -0.6059075786744927, 614945000000.0]
[0.5812097391691204, -0.6986792561668168, -0.5748818674568442, 614950000000.0]
[3.3673244554613273, -0.6101708166375054, -0.5308839004568707, 614955000000.0]
[-3.130696704524434, -0.7426466899341856, -0.4916344754058761, 614960000000.0]
[0.42819315929318935, -0.599810499241023, -0.4663042207351109, 614965000000.0]
[2.929375578348391, -0.13842726424376556, -0.4318101940040222, 614970000000.0]
[-0.2549719534636738, -0.9625298983959744, -0.39366576416640825, 614975000000.0]
[-2.1893452278669012, -0.5980870167358908, -0.3635217393785749, 614980000000.0]
[2.1934558061967877, -0.24645714222532583, -0.34196556588494836, 614985000000.0]
[0.011794395998826833, -0.574615380722511, -0.31078719120217635, 614990000000.0]
[0.0845858297046936, -0.46625582742248545, -0.2826585774898268, 614995000000.0]
[0.084370016846847, -0.332542510357656, -0.2580114052445172, 615000000000.0]
[-1.4184244250688671, -0.3597002305647417, -0.23938009878914587, 615005000000.0]
[1.447667301057365, 0.06099968033789282, -0.2190065917419443, 615010000000.0]
[-0.2354994170747344, -0.7726140739417688, -0.19643557067491038, 615015000000.0]
[-0.013493934705858957, -0.5553385443055335, -0.1770403243444633, 615020000000.0]
[0.017734231641070117, -0.32379537601642583, -0.1603350382048264, 615025000000.0]
[0.12930242831058267, 0.06441999055628041, -0.14459421144169554, 615030000000.0]
[0.05919542965752466, 0.07692037817629534, -0.12858919161528348, 615035000000.0]
[-0.025572972645555893, -0.11926529554391573, -0.11248365147171437, 615040000000.0]
[-0.04477880584893481, -0.09123196534097416, -0.09651752010343884, 615045000000.0]
[-0.1034709151897377, -0.2021590272760847, -0.08002044011454754, 615050000000.0]
[0.33316740540948764, -0.2372410889997206, -0.06271198116420419, 615055000000.0]
[0.07958509280840806, -0.22473804208588755, -0.045222665055764416, 615060000000.0]
[0.208703299373997, -0.26420898300250106, -0.027177312311200227, 615065000000.0]
[0.08484445358778006, -0.225305623854115, -0.008605987738628609, 615070000000.0]
[-0.10868173191895608, -0.15700346421048586, 0.008569126880046185, 615075000000.0]
[-0.18184542387293962, -0.10405295679498149, 0.024183918510744952, 615080000000.0]
[-0.15701895676146355, -0.14626317546925882, 0.03676287546425817, 615085000000.0]
[-0.13766799055463588, -0.21113454480455807, 0.045347552894539685, 615090000000.0]
[-0.10631602234283445, -0.14480520388189866, 0.05071730585241003, 615095000000.0]
[-0.10643366761393339, -0.09373553409645421, 0.052360473481211714, 615100000000.0]
[-0.07930883586322143, -0.04024397263170393, 0.04998670928174804, 615105000000.0]
[-0.12025308362819812, -0.024606096454332385, 0.044494919703328605, 615110000000.0]
[0.10612040994532221, -0.17323760453784265, 0.03925888732828242, 615115000000.0]
[-0.011626770561018518, -0.10928574789246126, 0.03046004164264199, 615120000000.0]
[-0.1254287096405052, -0.006197062151295424, 0.023206395768485554, 615125000000.0]
[-0.3014243756937711, -0.007463196437979193, 0.015082743522883349, 615130000000.0]
[-0.16177197279205366, -0.06051390913456588, 0.007132771634925995, 615135000000.0]
[-0.07178109191095604, -0.09799898431568241, -0.0007314473205647841, 615140000000.0]
[-0.04593752159783185, -0.13171753414273119, -0.008219090576626748, 615145000000.0]
[-0.016270841199741294, -0.13436769751803815, -0.014069847427743115, 615150000000.0]
[0.0029710479817413272, -0.11788772115803375, -0.018881374459089204, 615155000000.0]
[-0.058249640215509164, -0.11858729057014702, -0.02152699019808867, 615160000000.0]
[-0.07410223330636104, -0.12434344465724767, -0.02260447657774704, 615165000000.0]
[-0.05157889739940201, -0.14810152228349432, -0.02226237875679207, 615170000000.0]
[-0.1037350159081802, -0.10356493151595957, -0.020785002322585885, 615175000000.0]
[-0.08916135269663568, -0.11450088150753317, -0.017539998908052006, 615180000000.0]
[-0.07236352297760457, -0.10973808025806256, -0.013313603506773079, 615185000000.0]
[-0.08843085335818172, -0.11357234835493578, -0.007747142851246967, 615190000000.0]
[-0.09657109673979342, -0.0674716004342026, -0.004029996611879226, 615195000000.0]
[-0.0943726371924997, -0.07790839760716436, 0.0005444280488861756, 615200000000.0]
[-0.11283549077620898, -0.0917258347637604, 0.0054496195439115635, 615205000000.0]
[-0.0741440652811633, -0.07993765024327507, 0.008653387636482667, 615210000000.0]
[-0.054397056243486945, -0.07194540366884453, 0.011157036830102978, 615215000000.0]
[-0.11606345380590583, -0.05783954938305201, 0.013063746850250049, 615220000000.0]
[-0.09273947400692022, -0.04993138972444992, 0.013540124526382195, 615225000000.0]
[-0.06683708038047881, -0.08311973156626659, 0.013377529348791519, 615230000000.0]
[-0.07854169615413059, -0.06814982491223007, 0.012720853579021167, 615235000000.0]
[-0.10492707798916566, -0.055074502307944036, 0.010424100979722904, 615240000000.0]
[-0.11909447408033727, -0.050460813860289916, 0.00855777539420745, 615245000000.0]
[-0.0749233251972066, -0.056518689669981144, 0.0053006756919751295, 615250000000.0]
[-0.12130043981393235, -0.10365171264039195, 0.0030512484551342514, 615255000000.0]
[-0.10934671656850263, -0.06867094978936257, 5.620446036752529e-05, 615260000000.0]
[-0.07707288392163729, -0.04623536578697198, -0.0026719317201818063, 615265000000.0]
[-0.09384759019563105, -0.07643674052681025, -0.004498214020603031, 615270000000.0]
[-0.08859581278432149, -0.03129097535537732, -0.005790701839243457, 615275000000.0]
[-0.10660085575051875, -0.06559739650359427, -0.007480005083723668, 615280000000.0]
[-0.09213922022439337, -0.08214492625548768, -0.0075274169649214955, 615285000000.0]
[-0.09705698987322922, -0.09279556070067067, -0.007903434364637295, 615290000000.0]
[-0.10143512528185845, -0.0320203344025553, -0.007461548904426957, 615295000000.0]
[-0.08472018887640426, -0.07932755745384573, -0.00622651702760639, 615300000000.0]
[-0.08702567236788594, -0.043394520177720025, -0.004723374209552313, 615305000000.0]
[-0.1074827672043509, -0.06979883606070715, -0.003418537305439753, 615310000000.0]
[-0.10685205143909976, -0.09739268497368547, -0.001732115648287477, 615315000000.0]
[-0.09011883403521706, -0.06363769633404312, -0.00018989685644877822, 615320000000.0]
[-0.09758616541166441, -0.04061315759126921, 0.0019463678417470625, 615325000000.0]
[-0.06263658545145484, -0.028391689782053853, 0.0027043246547192924, 615330000000.0]
[-0.07861696319099712, -0.03982941463125203, 0.0040831763917463905, 615335000000.0]
[-0.08361196068096786, -0.034205020332858854, 0.004690773740034418, 615340000000.0]
[-0.05410267869624325, -0.05644692896390903, 0.005150598266183401, 615345000000.0]
[-0.10498188254126463, -0.07896401578407611, 0.004899378577674888, 615350000000.0]
[-0.09630872920886703, -0.02317336217609022, 0.004669327359321731, 615355000000.0]
[-0.09532859554025602, -0.03896812219971518, 0.003949987068149017, 615360000000.0]
[-0.10559119362142258, -0.02153829558181954, 0.0032460894287570886, 615365000000.0]
[-0.08576542107392175, -0.036320640158081514, 0.00267162617219941, 615370000000.0]
[-0.08354519075464312, -0.033311345947212384, 0.0010954624720166811, 615375000000.0]
[-0.09161065348814569, -0.035687102703205235, 0.0003788396204504964, 615380000000.0]
[-0.08501278012378945, -0.040268534078054134, -0.0002348822336127957, 615385000000.0]
[-0.09009042412095397, -0.05004197655073066, -0.000948860950247684, 615390000000.0]
[-0.08031583181157033, -0.029247170563121205, -0.0018905436962080987, 615395000000.0]
[-0.07439139676984871, -0.023765946075833183, -0.002646119108135398, 615401000000.0]
[-0.07659064206724406, -0.04224966541967339, -0.0026325475953987297, 615406000000.0]
[-0.08700569806643473, -0.09037020079406297, -0.0024138404742300836, 615411000000.0]
[-0.055949336711742445, -0.03147485224145301, -0.0028498670917279072, 615416000000.0]
[-0.06641411763082611, -0.032771870548391174, -0.002289207280508194, 615421000000.0]
[-0.06317949695755361, -0.030600677972901353, -0.0011220149353890598, 615426000000.0]
[-0.06598961161409504, -0.005063931093643587, -0.0014794073450436684, 615431000000.0]
[-0.07117994231736381, -0.017375536010139192, -0.000612260686084668, 615436000000.0]
[-0.04847653805019701, -0.01334613671475095, -4.63389700700264e-05, 615441000000.0]
[-0.05972905057201574, -0.04815088396565272, 0.00036347216024121146, 615446000000.0]
[-0.04334585181327377, -0.022216600399441185, 0.0009883616162254384, 615451000000.0]
[-0.11255313395812183, -0.009865499142479896, 0.0013374599169933405, 615456000000.0]
[-0.09275588013115678, -0.03700422828042451, 0.0014481247267802675, 615461000000.0]
[-0.056157538241540204, -0.04721961214406023, 0.0018241699358583219, 615466000000.0]
[-0.08083275099674322, -0.027755589181857568, 0.001793174179346831, 615471000000.0]
[-0.06556308430831231, -0.02651378120927025, 0.0017555391847630661, 615476000000.0]
[-0.16270058587655759, -0.06532523472439117, 0.0017505114631139922, 615481000000.0]
[0.06216227867776119, 0.025314254354132384, 0.002048006223792177, 615486000000.0]
[-0.03907865716925384, -0.02010154945048735, 0.0016639376962362547, 615491000000.0]
[-0.1463392698007539, -0.059968626845652746, 0.0014023103254097713, 615496000000.0]
[-0.04631313393320928, 0.008740366590924767, 0.0013179871719391678, 615501000000.0]
[0.035879361297387315, 0.04202103176367693, 0.0006147880429981281, 615506000000.0]
[-0.17107944045248108, -0.05172179592138451, 0.0006381587086332387, 615511000000.0]
[-0.040382479824826144, -0.03954042314677933, 0.0006269735122904727, 615516000000.0]
[-0.03594598100348337, -0.011206710352412242, 0.0005604605594970208, 615521000000.0]
[-0.05001406584076731, -0.006097971784918253, 0.0004108643623989037, 615526000000.0]
[-0.045520739049301505, 0.014495102875843923, 0.00017911618546915964, 615531000000.0]
[-0.04375478402799941, -0.03814583225605303, 0.0002249022583729792, 615536000000.0]
[-0.0669859359125388, -0.03719151719144692, 0.00010778374785721455, 615541000000.0]
[-0.08127121905766618, 0.0026344228157464625, -0.0003563592083042866, 615546000000.0]
[-0.04856396309687775, -0.012441847276816643, 0.0001534592643831382, 615551000000.0]
[-0.06176701347882075, -0.0408098655593754, 0.00010785605741713946, 615556000000.0]
[-0.021266808343188056, -0.008594464964517923, -0.0004403677347620138, 615561000000.0]
[-0.03363514871325572, 0.01332909435334117, -0.00033304588848432585, 615566000000.0]
[-0.027118876279033154, 0.015055549270459012, 0.0004121055932986011, 615571000000.0]
[-0.035260140944736416, -0.022663075242405257, -0.00022456355891852504, 615576000000.0]
[-0.030240924644577435, -0.009924182337612969, 0.00036114352938109904, 615581000000.0]
[-0.04388639989869039, 0.023196345994359633, 9.02397164318458e-05, 615586000000.0]
[-0.03941816324811086, -0.019453944063878275, 0.00031213720933804883, 615591000000.0]
[-0.041067829921437864, -0.011798861596282049, -9.077767309929592e-06, 615596000000.0]
[-0.05883227703778532, -0.024712901459898483, 0.000962759614492395, 615601000000.0]
[-0.06298845018594729, -0.023927595485057525, 0.0006637789820666551, 615606000000.0]
[-0.051104256191036604, 0.012811806581893055, 0.00012777114335534321, 615611000000.0]
[-0.01807549138206295, 0.007359190103861937, 0.000560944811675253, 615616000000.0]
[-0.0031799043569477672, -0.03354425900164672, 0.0004938229592772138, 615621000000.0]
[-0.041183826736062676, 0.018377273911627332, 0.0005133242146006176, 615626000000.0]
[-0.023604917767287344, 0.01962798174079827, 0.0004745969697809901, 615631000000.0]
[-0.07278223400718495, -0.006731217979479651, 0.0005196548307944014, 615636000000.0]
[-0.0064582867957990175, -0.023158066141447047, 0.0003410110077906495, 615641000000.0]
[-0.018070393549321703, -0.002077177539699919, -0.0002270925023707204, 615646000000.0]
[-0.013803044334924451, -0.003215855368628829, 5.4205622589292255e-05, 615651000000.0]
[-0.031056495088950267, 0.009560047858837056, 0.00014977588652597396, 615656000000.0]
[-0.017220257783003283, -0.005425077674355492, 4.288357832963693e-05, 615661000000.0]
[-0.04875648580549795, 0.007595130235838074, -7.516494367297043e-05, 615666000000.0]
[-0.0455891641401146, 0.004818211106863295, 7.740448671842048e-05, 615671000000.0]
[-0.01186036827339538, 0.03461918655494606, 3.700295778966245e-05, 615676000000.0]
[-0.006350840583344751, -0.036882806281535147, 6.173445762993907e-05, 615681000000.0]
[0.00034418320213047, -0.0004671435153143482, 0.0002705024238968286, 615686000000.0]
[0.028225799689277572, 0.012385957107682708, -3.991849073418185e-05, 615691000000.0]
[-0.009218416623935228, 0.032828569410814294, 0.00022061881563859825, 615696000000.0]
[-0.021046660520963927, 0.007954832199724754, 2.3402826701644048e-05, 615701000000.0]
[-0.0019837892328901756, 0.036500920021033, 0.00023191602881555772, 615706000000.0]
[-0.01373934874471692, -0.0059054616920249155, 0.0005261145397099516, 615711000000.0]
[-0.025406602970434514, 6.120444075494343e-05, 0.00023838762123254472, 615716000000.0]
[-0.02404002082269316, 0.02911024878220185, 0.00048497380249336135, 615721000000.0]
[-0.02687052954764694, 0.03842661070313401, 7.044662140563002e-05, 615726000000.0]
[0.0033373848490164636, 0.02774526478619249, -0.00016668216941029512, 615731000000.0]
[-0.02493962017103364, 0.012217781784345145, 0.0002588914574407718, 615736000000.0]
[-0.019468288222928863, 0.00805528457557466, 0.00034270487541547404, 615741000000.0]
[-0.003765417545606971, 0.042762632244688355, 0.0002527258672508818, 615746000000.0]
[-0.017127667907497535, 0.027338830991137687, 0.00020458826182595275, 615751000000.0]
[0.012611634040907507, 0.010839200589797572, 0.0001972208919429879, 615756000000.0]
[-0.012997056571852551, 0.005449493103303381, 7.502974427782788e-05, 615761000000.0]
[0.006222291780518045, 0.02514771961624853, 0.00012521111679234838, 615766000000.0]
[-0.003936017272252061, 0.017981568670264084, 0.00017117941788356373, 615771000000.0]
[-0.011909901171755673, 0.008652795202315062, 0.00022093401991150384, 615776000000.0]
[0.023417810840894556, 0.009532426171573146, 6.112518377669697e-05, 615781000000.0]
[-0.0015513110082182448, 0.005655949361843379, 7.04819583461539e-05, 615786000000.0]
[-0.013416888921276706, 0.02577788429060516, 0.0004450033026326162, 615791000000.0]
[0.012500141969101198, 0.022611148000284177, -4.930625547786585e-05, 615796000000.0]
[0.00273274906778418, -0.003035465264178836, 0.000765059363044548, 615801000000.0]
[-0.019260668194741936, 0.01883041049915015, 0.0004229876131171293, 615806000000.0]
[0.004875765740480597, 0.02819455746790651, -4.561255155049714e-05, 615811000000.0]
[-0.00019589239950748333, 0.03667849153754381, 0.0003075695685853819, 615816000000.0]
[0.0030279820882395596, 0.015697387837074146, -0.00029270582711779595, 615821000000.0]
[0.009168538583046799, 0.019083980699683013, 0.000454452291570795, 615826000000.0]
[-0.023727374922892275, 0.027643393715005165, 0.00021246339372597064, 615831000000.0]
[0.00031731563147417057, 0.004096111396437188, 5.484109778303839e-05, 615836000000.0]
[0.002093025486759901, 0.03557354273953945, 3.7892969603522806e-05, 615841000000.0]
[-0.002875169301072268, 0.05603964035158562, 7.461748687421847e-05, 615846000000.0]
[0.03284390718256832, 0.04428571847912912, 0.0002824075583383991, 615851000000.0]
[-0.003316133072767167, 0.05478116888054563, -8.47258423320636e-05, 615856000000.0]
[0.009924039927643003, 0.009733165712028733, 0.00017733467552668122, 615861000000.0]
[0.0020085795703945883, 0.027485394696862245, 0.00049137325381581, 615866000000.0]
[0.04062267385872432, 0.002224949337727048, 0.00020501517485815388, 615871000000.0]
[0.0054644321860538095, 0.021318691360349126, 0.0002689921289730533, 615876000000.0]
[-0.010391484646892804, 0.038038566345125056, 1.0048607096780693e-05, 615881000000.0]
[0.02351830699791941, 0.06507837894076324, -4.099320352497646e-05, 615886000000.0]
[0.022876693121799695, 0.0173419534092121, 0.0003768320346946162, 615891000000.0]
[-0.0041913047413739, 0.04735362403120813, 0.0001636008258673706, 615896000000.0]
[-0.01596802249471214, 0.05583686476084451, 2.788564849377846e-05, 615901000000.0]
[0.008271705617936997, 0.01869580124888177, 0.000170872774649101, 615906000000.0]
[-0.016186429302443586, 0.0303036606091179, 0.00018489033117590763, 615911000000.0]
[0.01828703544461639, 0.02509825602561462, 0.0002630242734632662, 615916000000.0]
[0.023821131851658694, 0.04506608118530749, 0.00018716177093098412, 615921000000.0]
[0.015295567227830412, 0.051983499373866385, 0.000105596392153212, 615926000000.0]
[0.023310024463219003, 0.034371496999711766, -7.401890366621827e-06, 615931000000.0]
[-0.003185381963388044, 0.03906023476240583, -0.0001057236179899408, 615936000000.0]
[0.0288988247296127, 0.038184126039372955, 0.0005219274398671186, 615941000000.0]
[0.026868157258058353, 0.04605489553382837, 0.0003091624118347011, 615946000000.0]
[0.05028102920715777, 0.037453415374452466, 0.00033336797950664473, 615951000000.0]
[0.011120577557030914, 0.03118905949949411, -0.00022469272339888514, 615956000000.0]
[-0.014221396507339095, 0.07255854516161897, 0.00011091571305704768, 615961000000.0]
[0.02791556944579249, 0.025609347084759357, 0.00013457555306664815, 615966000000.0]
[0.030240071613670857, 0.04889224937098491, 1.80044162615206e-05, 615971000000.0]
[-0.012735092893337518, 0.03611178967010958, 0.0002298925758820557, 615976000000.0]
[0.0029170064326203837, 0.05146253915043749, 0.00014045792985671092, 615981000000.0]
[-0.004409519714213165, 0.053191899749648594, -4.47253939661496e-06, 615986000000.0]
[0.028809377209882275, 0.031515073165983065, 3.7710744963069886e-05, 615991000000.0]
[0.0213340027569729, 0.05540631949866975, 0.0003714334562774425, 615996000000.0]
[0.050204526075783934, 0.037776396737198736, 3.217431823734722e-06, 616001000000.0]
[0.031159541440414648, 0.04006612896611686, 1.9770400986785316e-05, 616006000000.0]
[0.0562967562414752, 0.0539266134317537, 0.00011985954591061223, 616011000000.0]
[0.023188078929499204, 0.051697905335962906, 0.0003064103870595668, 616016000000.0]
[0.045749741738145375, 0.03298882665604355, 0.00021698152772558728, 616021000000.0]
[0.03230141299169227, 0.06473874230683785, 0.00026097669455620476, 616026000000.0]
[0.022938188074679344, 0.04177211567399642, 7.657310272697757e-05, 616031000000.0]
[0.027550553068506616, 0.07085824337980032, -3.112285652179464e-05, 616036000000.0]
[0.05268934310973961, 0.04117036446648415, 5.825891662160361e-05, 616041000000.0]
[0.009665631098561767, 0.024545050481467476, -2.3662003262704537e-05, 616046000000.0]
[0.02267798849813486, -0.0900628187029772, 0.00023553225526822227, 616051000000.0]
[0.05847078600385294, -0.23810733991683575, 0.00020075541250876884, 616056000000.0]
[0.030331737720611478, -0.13922501255887298, 0.0005696330308279561, 616061000000.0]
[0.04974815437131264, 0.025570820173010544, 0.00017058520231822216, 616066000000.0]
[0.054738436463858384, 0.03678024661201994, 0.00033304332108099164, 616071000000.0]
[0.025521628558049896, 0.03339759960613471, 0.00010931861308771101, 616076000000.0]
[0.012453686086850315, 0.08113615876590931, 0.00014637125702899754, 616081000000.0]
[0.02322818317196422, 0.054687422101398174, -9.637203225463912e-06, 616086000000.0]
[0.07497858848224918, 0.07484570786363988, 0.0006892110629377734, 616091000000.0]
[0.029440503440407908, 0.06161443692945517, 0.00021548865328675153, 616096000000.0]
[0.019523903352064623, 0.09432446694945462, 0.0002489427725958066, 616101000000.0]
[0.014673209387227928, 0.07317426442052043, 0.0004602141848212892, 616106000000.0]
[0.04655928497238877, 0.07903922094780144, 4.07103991680079e-05, 616111000000.0]
[0.0009499706127427433, 0.03482332104556209, 0.00021824445696806694, 616116000000.0]
[0.02645897541761493, 0.0684851257156929, 0.00036521057259816445, 616121000000.0]
[0.06637172262151322, 0.05206480941759977, 0.0002154630533255801, 616126000000.0]
[0.019796799401156924, 0.0680896550435406, 0.00017382207487079513, 616131000000.0]
[0.017010601131124112, 0.029296925500444642, 2.2213418437803e-05, 616136000000.0]
[0.027995282786222, 0.054839195975142155, 7.010088950152866e-05, 616141000000.0]
[0.03994840290496524, 0.050465943486914126, -0.0001735939341228844, 616146000000.0]
[0.030451193700031808, 0.07817391646618053, 0.00011309913437622618, 616151000000.0]
[0.05057240504386299, 0.02661915431741796, 0.0001754136799715574, 616156000000.0]
[0.024507154482626314, 0.0501120367959785, -0.00012995126551618608, 616161000000.0]
[0.009940187052453378, 0.09063600320607086, 0.00036551255941177067, 616166000000.0]
[0.040054725776360975, 0.09821920244496395, 0.00032598207323431244, 616171000000.0]
[0.0520023091114309, 0.0464949371077657, 0.00038002603171667843, 616176000000.0]
[0.05807792763559508, 0.05692150477406567, 0.00023384232908184012, 616181000000.0]
[0.026229372421259247, 0.06892685530575592, 0.00015161307708777072, 616186000000.0]
[0.04808736215117729, 0.07101780135682076, 8.95304455441511e-06, 616191000000.0]
[0.042337019934359774, 0.03556566140364778, 0.0002907537240892763, 616196000000.0]
[0.025784336064922572, 0.052372123449897195, -0.0002533199169204908, 616201000000.0]
[0.024523764160365114, 0.06179925474422906, 4.363635171487982e-05, 616206000000.0]
[0.04518313752949839, 0.05310452466658622, -0.0001753426927582728, 616211000000.0]
[0.01654226966676129, 0.05040728538893279, 0.00015029228653507258, 616216000000.0]
[0.005551657529388604, 0.0802225753610321, 0.00015663092520227633, 616221000000.0]
[0.013209139450113979, 0.05226809942459317, 0.00018551900467526154, 616226000000.0]
[0.0036226516691878277, 0.057766613382127206, 0.00016818855278288698, 616231000000.0]
[0.048893805349082387, 0.06533205364021588, 0.0004887705345548703, 616236000000.0]
[0.02631893504094099, 0.03265504624625445, 0.00019006703521002013, 616241000000.0]
[0.04546547054172782, 0.056287878210293615, 0.0003729758366893273, 616246000000.0]
[0.005839230538545927, 0.07847274671597454, -0.00018112745856582212, 616251000000.0]
[0.019126336594757657, 0.07040079801625665, 3.853879781757611e-05, 616256000000.0]
[0.020763863056893116, 0.05675370240142218, -0.00046426062939919203, 616261000000.0]
[0.027401661237481025, 0.01243984269095448, 7.923308556936815e-05, 616266000000.0]
[0.016612321409516507, 0.050428045380712536, -0.0004234504827112088, 616271000000.0]
[0.014075486448675505, 0.05633743195663094, 0.000288698594398393, 616276000000.0]
[0.012242720475682856, 0.04202928776888361, 8.302679731020222e-05, 616281000000.0]
[0.011466311500699218, 0.07154794456762816, 3.2765307826256485e-05, 616286000000.0]
[0.026641068082146925, 0.05306063051984498, 6.84467720116038e-05, 616291000000.0]
[0.05846920678345023, 0.0530561059349054, -7.614202420976735e-05, 616296000000.0]
[0.005340229548937609, 0.06707058519738304, 0.0005978056653903848, 616301000000.0]
[0.03509797707169792, 0.06970999113745374, 0.00021458771303821877, 616306000000.0]
[0.04915721156021695, 0.023486027092659935, -0.00039300468394116956, 616311000000.0]
[-0.0013836138011542008, 0.08904228448306309, 0.00018115969046985462, 616316000000.0]
[0.04922978174063418, 0.0470914175538538, 7.587371560710241e-05, 616321000000.0]
[0.04035523899785172, 0.07047456074649441, 0.0002977454105345131, 616326000000.0]
[0.031668976370305996, 0.03684622440831088, 0.00027609506364324244, 616331000000.0]
[0.010778009326302719, 0.09044700994412329, 0.00025306789234453306, 616336000000.0]
[0.017075347139145818, 0.05389083628212592, -0.00012429320605349717, 616341000000.0]
[0.024927072814607154, 0.06247887505877645, 0.0004369369549413383, 616346000000.0]
[0.025425768200595326, 0.0400548735417728, 9.591559106041255e-05, 616351000000.0]
[-0.0038309954139269173, 0.044634650076078704, 0.00041266950533209426, 616356000000.0]
[0.028954667200560228, 0.04028188385164595, -0.00012002208067281341, 616361000000.0]
[0.03599619897856064, 0.0865613379718321, 0.00048530620754873744, 616366000000.0]
[0.03681615283316206, 0.07461224094721051, 5.780944167538949e-05, 616371000000.0]
[0.030906124040732567, 0.08202137951458019, 0.00019420853212480363, 616376000000.0]
[0.030090958494484853, 0.07279580074527703, 0.0005907973334029184, 616381000000.0]
[0.023608710328321326, 0.059077558728050636, -8.967930548641861e-05, 616386000000.0]
[0.020726937638048316, 0.05368291020724945, -5.962122577535099e-05, 616391000000.0]
[0.013265519610163957, 0.05519213874203026, -5.963695899435323e-05, 616396000000.0]
[0.0017648872536947698, 0.04660806874055964, 0.00020920535227903622, 616401000000.0]
[0.04155833714088069, 0.06290648523190778, 0.00026332114456462346, 616406000000.0]
[-0.004626310405871532, 0.10029161527863303, 0.00032051056451710394, 616411000000.0]
[0.0013480466008106914, 0.04638034948365515, -2.226678606863326e-05, 616416000000.0]
[0.03193934770502096, 0.030375013929000244, 0.0005889188969462503, 616421000000.0]
[0.029090056878130124, 0.06482132069714304, 0.0005037805724194804, 616426000000.0]
[0.005537725668042264, 0.0921483750706399, 0.0002694958445004418, 616431000000.0]
[0.01990347554694132, 0.09847548697538352, 0.00017927472332113087, 616436000000.0]
[0.030068297244660508, 0.06360174960950714, 0.00023704704430040064, 616441000000.0]
[0.009234757184299234, 0.043266971857969724, 0.00023619751422928941, 616446000000.0]
[0.029085617985431012, 0.05296160918767805, 0.00039009252834279115, 616451000000.0]
[0.040625683608541185, 0.054686741641053666, -2.0880986100791954e-05, 616456000000.0]
[0.01758160253887832, 0.04391102472382148, 0.0001664478489453003, 616461000000.0]
[0.014342998154000381, 0.04565654786824033, -3.240680121570415e-05, 616466000000.0]
[0.025400395149802156, 0.04188916809988779, 0.0003605737224432296, 616471000000.0]
[0.01802031347362818, 0.07114904883776814, -7.329725359294265e-05, 616476000000.0]
[0.019038606951653273, 0.04224689939417521, 0.0005832551417735828, 616481000000.0]
[-0.005545026561797627, 0.05854321040404793, 0.0003573385666786918, 616486000000.0]
[-0.0014797943923459123, 0.05664737093700337, -0.00032233454162436685, 616491000000.0]
[0.032222799968207254, 0.050701310383089615, 0.0001311398725331433, 616496000000.0]
[0.013832698407427685, 0.033133675616553865, 9.006341507507116e-05, 616501000000.0]
[0.03880310079737773, 0.06112010895081775, -1.614479133041263e-05, 616506000000.0]
[0.003761522196413741, 0.06683517253078178, 0.0005466022010080874, 616511000000.0]
[-0.02341468548015644, 0.0564475267851599, 0.0004091035377070023, 616516000000.0]
[0.006553069433654428, 0.03930820983490037, 0.00037570248441370923, 616521000000.0]
[0.024057699924308656, 0.05342678410566097, 0.00011996279864480732, 616526000000.0]
[0.028256953522820934, 0.05515736154293582, 0.0005698519069191418, 616531000000.0]
[0.02658678915282963, 0.0723485608870545, -9.192642513220891e-05, 616536000000.0]
[0.022746372712329148, 0.1251591848625105, 0.00016168626095573496, 616541000000.0]
[0.012529502706646677, 0.14238309610067607, 0.0004277356288628089, 616546000000.0]
[0.014812499390105472, 0.07198960094091784, 0.00015469526666188438, 616551000000.0]
[0.019284642464256204, 0.08820092791886276, 0.0004638151033497657, 616556000000.0]
[0.013320591097483677, 0.046592870642599885, 0.00033163084369112713, 616561000000.0]
[-0.012105946017992374, 0.07724564228858105, 0.0003577964414320877, 616566000000.0]
[0.01917451044795007, 0.032312714220931356, 0.0002624546953104211, 616571000000.0]
[0.014648032731110856, 0.05261426219645291, 0.0001976452948412587, 616576000000.0]
[0.03127799827318068, 0.051253113808398025, 6.57230030545532e-05, 616581000000.0]
[0.0348554857106442, 0.05551505403760966, -0.00021140470206483395, 616586000000.0]
[0.031022847631466066, 0.05362887458151377, 0.00011806958409222269, 616591000000.0]
[-0.010631941815190291, 0.01825161469995805, 0.000565681317796809, 616596000000.0]
[0.00918602249072323, 0.05043997146183734, 0.0002537584601035275, 616601000000.0]
[0.002651317016043665, 0.02957317230527882, 0.0002619858477471524, 616606000000.0]
[-0.01449950564062031, 0.04827185328673657, 0.00038293237837311485, 616611000000.0]
[0.003484273084385775, 0.031214685901152228, 0.00036733799297323936, 616616000000.0]
[0.023507957143301984, 0.031338150668959744, -3.090127466116993e-05, 616621000000.0]
[0.03855506598551227, 0.038117127163505765, 0.00023935791024485225, 616626000000.0]
[0.0401718595636384, 0.06447693390649627, 0.00037831529825922596, 616631000000.0]
[0.0030953344354906855, 0.022750254029284243, -1.9902745581763294e-05, 616636000000.0]
[0.03863183663533467, 0.0449620315384405, 0.00032853462634388193, 616641000000.0]
[0.0053387710545203595, 0.051733253749020325, 0.00026874486873335263, 616646000000.0]
[0.026436069394466494, 0.042215857920094205, 0.00041312176011630455, 616651000000.0]
[0.013768395017134448, 0.03977129402949127, -8.169308708469452e-05, 616656000000.0]
[-0.0038340596899951443, 0.024919386955538178, -0.0001198435745488948, 616664000000.0]
[-0.0022121286507309668, 0.018585917467709306, 0.00033412141500648225, 616669000000.0]
[-0.0014448033781563603, 0.053664916344545024, -0.0003811789270964128, 616674000000.0]
[-0.011860272411522772, 0.03421568423971945, 0.0005297969645065201, 616679000000.0]
[0.006414014406365031, 0.020326404701215797, 0.00011324744625831862, 616684000000.0]
[0.0239707651655066, 0.02594127906374489, 0.00042437505784597893, 616689000000.0]
[0.005970549227323552, 0.05332028576270545, 2.8849883826216187e-05, 616694000000.0]
[-0.001902206998304758, 0.05802131410579313, 0.00011210571269859557, 616699000000.0]
[0.0005763574184523132, 0.04288255341106824, 7.72392542361416e-05, 616704000000.0]
[0.008090129760680222, 0.041441395914894236, 0.00021721881257345617, 616709000000.0]
[-0.02490761940762143, 0.03053251036250495, 0.0003469798978421847, 616714000000.0]
[-0.012165586023592686, 0.055786398769402196, 0.00023228933940193044, 616719000000.0]
[-0.0010303808103134032, 0.024071278064377605, 0.00037067414223412203, 616724000000.0]
[-0.020105536141972333, 0.026831067680795025, 0.00023916207287272203, 616729000000.0]
[-0.015366875689025502, 0.0433493269632252, 0.0002596582201007377, 616734000000.0]
[-0.022626882403163448, 0.03679101575267379, 5.13231498477064e-05, 616739000000.0]
[-0.014152578413647386, 0.03553395352703687, -2.2483513331719723e-05, 616744000000.0]
[-0.011319126265480347, 0.03820870714987918, 0.0002444038014354911, 616749000000.0]
[-0.01757790460838339, 0.04055836651713434, 0.0002600920642167165, 616754000000.0]
[-0.03928521500268882, 0.05397326162909273, -0.00023389007915988543, 616759000000.0]
[-0.0034156861484200256, 0.01651995531602149, 0.00023582802365025717, 616764000000.0]
[0.017547551625668782, 0.04530707489855773, 0.00026509333802752805, 616769000000.0]
[-0.010288294001863835, 0.012354053873520923, 0.00022233687151091658, 616774000000.0]
[-0.03633133826770717, 0.058420016164377066, 0.0004266436693762277, 616779000000.0]
[-0.02660552725854532, 0.029824846265843086, -0.00043521794555318794, 616784000000.0]
[-0.035357083498600034, 0.048167775328316294, 0.0006868506052832485, 616789000000.0]
[-0.019833431925613744, 0.03412760455690849, -0.00040668130958887823, 616794000000.0]
[-0.053308432704105214, 0.01706428907099383, 0.00024945276675137425, 616799000000.0]
[-0.008782322000290204, 0.03406684281537389, 0.00015882215752098555, 616804000000.0]
[-0.04041399776601444, 0.03174130350738296, 0.0001478472340991879, 616809000000.0]
[-0.029229987442084552, 0.05146722529797043, 0.000337722614113536, 616814000000.0]
[-0.007699181056158858, 0.0267501407666935, -4.331571638955636e-05, 616819000000.0]
[-0.0269749806348789, 0.023030688605354302, 0.00022348370946615988, 616824000000.0]
[-0.016405149728985477, 0.03027440101096275, 0.0004060424513555352, 616829000000.0]
[-0.021158993859519096, 0.044724205384878396, 0.0002442444000210954, 616834000000.0]
[-0.017864225774549367, 0.0611438355372934, 0.00036052075930392575, 616839000000.0]
[-0.04176367334570003, 0.030723569595171557, 0.0001135208603279506, 616841000000.0]
[-0.023485136822319674, 0.0018126335784736103, 0.00011253814254633318, 616846000000.0]
[-0.04720362874373013, 0.0277103877798786, 0.00023503484101560624, 616851000000.0]
[-0.022381756166552354, 0.013939970473734634, -6.943719089870154e-05, 616856000000.0]
[-0.001577247164185308, 0.03180096146095908, 2.1465237087332865e-05, 616861000000.0]
[-0.009133741860979185, 0.011135733768633558, 0.00013964367491942626, 616866000000.0]
[-0.04196295839961506, -0.0014627355534074446, -0.00038277454189703745, 616871000000.0]
[-0.03161505170022144, 0.03404756340094541, 8.493417123664282e-05, 616876000000.0]
[-0.03555825863959129, 0.03598921941555569, 0.0002525562482794673, 616881000000.0]
[-0.05645097895928712, 0.0504207437105124, 0.00016001724675669137, 616886000000.0]
[-0.04288137445913806, 0.040707532120493356, 0.0002859971376061395, 616891000000.0]
[-0.026393195603282422, 0.02275775652447573, 0.0001853277569129456, 616896000000.0]
[-0.02245450150429322, 0.05144971190493631, 0.00017657637572878753, 616901000000.0]
[-0.041155625242506266, 0.044546318032395206, 0.0002147311689126229, 616906000000.0]
[-0.05810198018908665, 0.02578266540143915, 7.441297268366619e-06, 616911000000.0]
[-0.033942131458647024, 0.018678268971656302, -0.0001295709683308362, 616916000000.0]
[-0.05678109298379057, 0.024216175011789975, 0.00020990024837273753, 616921000000.0]
[-0.04566442601837556, 0.0248584549903504, 0.0003213508990252403, 616926000000.0]
[-0.06010265432901876, -0.007991669801195651, 2.2573813541047533e-05, 616931000000.0]
[-0.054959918472525175, 0.036218731015246586, 0.00016216232381781543, 616936000000.0]
[-0.041209973787683464, 0.027821874921806863, 0.00010430277856649234, 616941000000.0]
[-0.048944628267139294, 0.04724929846654834, 0.0004586589982562361, 616946000000.0]
[-0.06922241412116492, 0.022779136774890723, -1.034888786303101e-05, 616951000000.0]
[-0.04235025163315113, 0.04496125438060081, 0.0001309300224358042, 616956000000.0]
[-0.05513804660594883, 0.025434963803685973, -6.888163061441265e-05, 616961000000.0]
[-0.051965912775422715, 0.046037048251579026, 0.00019442540492115785, 616966000000.0]
[-0.07329975891245483, 0.048866405292297174, 0.00029013500445688176, 616971000000.0]
[-0.061879523123751966, 0.01310363280655076, 0.00041820928635277424, 616976000000.0]
[0.01347178133487572, 0.0709183968756684, 6.68269343503258e-05, 616981000000.0]
[-0.04936784564661365, 0.047360915989314266, -0.0002606135710303985, 616986000000.0]
[-0.11188335150274561, -0.018183379383806757, -0.00033524434633113527, 616991000000.0]
[0.032762696729791235, 0.08163994720924288, -0.0002003501039210943, 616996000000.0]
[-0.07621990289440507, 0.031050718973696816, -0.0005328875071327612, 617001000000.0]
[-0.15726172730669835, 0.01706859323716353, -0.0005694911541365796, 617006000000.0]
[0.055385284787737174, 0.037684160907131975, -0.0007704814846417107, 617011000000.0]
[-0.07583165252296287, 0.03468380071663121, -0.0006326333372501229, 617016000000.0]
[-0.07561842978001314, 0.02527879958759132, -0.0006481613841054015, 617021000000.0]
[-0.044597362612170434, 0.0477425437905946, -0.0009186171878673387, 617026000000.0]
[-0.06541442980972957, 0.03300584118858367, -0.0010189185918883896, 617031000000.0]
[-0.02785434246083085, 0.01211753032784691, -0.0008318452056032165, 617036000000.0]
[-0.07992251579667659, 0.03292026958641826, -0.0007897895188466167, 617041000000.0]
[-0.03375040137348621, 0.0574255708786149, -0.0005789295070247325, 617046000000.0]
[-0.07731456243475367, 0.014475419986330352, -0.00012390021253779864, 617051000000.0]
[-0.05202348861592637, 0.03928485936973035, -0.00010995497942826727, 617056000000.0]
[-0.0968316420322922, 0.06597572939341183, -0.00013993182391119246, 617061000000.0]
[-0.05377223570258771, 0.020026220009686603, 0.0002118381900189789, 617066000000.0]
[-0.09561355436252471, 0.0187567381844286, 0.0003668764444776611, 617071000000.0]
[-0.0606626184403601, 0.017105416815033088, 0.0005028105045056185, 617076000000.0]
[-0.061449264534672116, 0.02268068413425795, 0.0005484126080831142, 617081000000.0]
[-0.09965138429247214, 0.02527608996550864, 0.0005880550615060332, 617086000000.0]
[-0.0669814662773755, 0.03725663473734618, 0.0007647543432751768, 617091000000.0]
[-0.039560206268251304, 0.030026317917824574, 0.0001279136963964306, 617096000000.0]
[-0.0643236527913397, 0.009080161005369562, 0.0002963141225672279, 617101000000.0]
[-0.10538664416452187, 0.03713056768835936, 0.00019576879669551585, 617106000000.0]
[-0.0868002566908638, 0.062168720690872606, -4.5069927068281664e-05, 617111000000.0]
[-0.05511981188457088, 0.028583961385325186, 9.995792234724179e-05, 617116000000.0]
[-0.07717197992099983, 0.01749538581827991, -0.0003328583454418867, 617121000000.0]
[-0.04268318711664712, 0.008961421999986549, -0.0004323628146788362, 617126000000.0]
[-0.09450918132898588, 0.052923396582856296, -9.361029675802497e-05, 617131000000.0]
[-0.0873538294058102, 0.04052809657745007, -0.00030869853557761204, 617136000000.0]
[-0.09283909601064833, 0.0240569868006087, -0.00014333172880613059, 617141000000.0]
[-0.07534254463935174, 0.03518033092191053, -3.697166993955599e-06, 617146000000.0]
[-0.05196162810619755, 0.019956932450631848, -0.00022287407836152015, 617151000000.0]
[-0.09451886234204636, 0.022092576168389486, -0.0001484058483318163, 617156000000.0]
[-0.0833303238971321, 0.05046238035076083, -0.00011847506408392284, 617161000000.0]
[-0.06529499602438146, 0.03427073341274327, -8.783110594378382e-06, 617166000000.0]
[-0.08731820196071524, 0.03990829003046998, -2.199207810196328e-05, 617171000000.0]
[-0.06274900212747007, -0.001177083908465392, 0.00025331401419452363, 617176000000.0]
[-0.08551652692266284, 0.05431615834382689, -0.00028751218695016826, 617181000000.0]
[-0.06686320291938988, 0.0268932562954947, -2.1683098655332034e-05, 617186000000.0]
[-0.07105821249337774, 0.0010692764962502675, 9.02073298751907e-05, 617191000000.0]
[-0.07361555117704699, 0.019717501093937467, 0.0003328001777713731, 617196000000.0]
[-0.09389604642179009, 0.03269619563475744, 0.00036329599804453625, 617201000000.0]
[-0.06635064446725304, 0.03882912673379337, 0.0002703432461609201, 617206000000.0]
[-0.05610335408236644, 0.014474314864796634, 1.1692290435715431e-05, 617211000000.0]
[-0.06151899444735074, 0.04546515012602774, 0.00021619061111006877, 617216000000.0]
[-0.11535277465347411, 0.03522197437574783, -0.00010939723762645203, 617221000000.0]
[-0.08373850737952131, 0.015458169211163213, 0.0001938664326908583, 617226000000.0]
[-0.07856154523171652, 0.015106919849361921, 0.00041612855456089345, 617231000000.0]
[-0.09799069684029191, 0.012630644112469813, 0.00028469050730134697, 617236000000.0]
[-0.08723709347336618, 0.022142543279316838, 0.00024812714561222264, 617241000000.0]
[-0.07944429416312535, 0.0012922222104580876, -8.571757870066626e-05, 617246000000.0]
[-0.09371753649315726, 0.04724532511432836, 0.0003839046494354491, 617251000000.0]
[-0.08295307533340891, 0.028278378229396505, 0.00013003740660542988, 617256000000.0]
[-0.08363818682528286, 0.022941619520359002, -6.286839585240388e-06, 617261000000.0]
[-0.11174625068624122, 0.031877831671081616, 1.825822001130579e-05, 617266000000.0]
[-0.06829571915979493, 0.03258997143194782, -8.108081178096911e-05, 617271000000.0]
[-0.06452317742230194, 0.012049903890532423, -0.00017307698650463295, 617276000000.0]
[-0.07060544268050795, 0.005299557640045343, 3.038742953229254e-05, 617281000000.0]
[-0.0794596886750801, 0.019207758234459762, 8.97192171091765e-05, 617286000000.0]
[-0.09280521875648431, 0.00040110716097422824, -0.00012548128154230286, 617291000000.0]
[-0.04868690799832886, 0.02093672478013459, -0.0002461091884206008, 617296000000.0]
[-0.1008381828128311, 0.01969897739792357, 0.00043611810239339177, 617301000000.0]
[-0.0785273694447998, 0.01196196423211638, -0.0004933141214000644, 617306000000.0]
[-0.08909325806402803, 0.04704550676277713, -9.532321448835226e-05, 617311000000.0]
[-0.07110624994571475, 0.04765142973788768, 2.012805624480502e-05, 617316000000.0]
[-0.06677793466832917, 0.04289864892032906, 0.0004663364646568475, 617321000000.0]
[-0.09070992060266804, 0.036528401814382015, 8.556695596530639e-05, 617326000000.0]
[-0.09348573622016788, 0.020780871988711286, 0.0003376888828763942, 617331000000.0]
[-0.09350753052872406, 0.0020116579958608105, -2.7174859197504913e-05, 617336000000.0]
[-0.0846142611791878, -0.007211774997790497, 0.00027805551082442283, 617341000000.0]
[-0.08132108234874352, 0.007147660340434972, -4.521405941305804e-05, 617346000000.0]
[-0.07555740370600995, -0.0005134986316974073, 0.00012129196557393574, 617351000000.0]
[-0.06655998719519439, -1.017124705285019e-05, -7.957413166184575e-05, 617356000000.0]
[-0.05258480735072195, 0.03381268534431153, -0.00016982621703402452, 617361000000.0]
[-0.08643112536195251, 0.03314805208996101, 0.0001421758715232538, 617366000000.0]
[-0.04442816731710777, 0.004947988298913318, 0.00017144702167621518, 617371000000.0]
[-0.06345135432258191, 0.02361728364410342, -0.0003348707551151528, 617376000000.0]
[-0.029031458839932488, 0.03433625687305643, 0.0001559279454890935, 617381000000.0]
[-0.04559248697777197, -0.007226217108104553, 8.437047264875657e-05, 617386000000.0]
[-0.04151170695345927, 0.020752097770433943, 2.2147411532743297e-05, 617391000000.0]
[-0.18753668007207264, -0.005587632029016647, 0.0006765745200300087, 617396000000.0]
[0.06983614389771155, 0.0896696417905443, 0.0004133180086932903, 617401000000.0]
[-0.03460721331332612, 0.018829761248069985, 0.0008161746850872051, 617406000000.0]
[-0.15563027309401634, 0.011354017368649057, 0.00042666757988198454, 617411000000.0]
[0.02008272038193061, 0.07219305824452331, 0.0012347560649010546, 617416000000.0]
[-0.12757520926027963, 0.0024767684751479477, 0.00048053771831350683, 617421000000.0]
[-0.06488964011160456, 0.04067289342365528, 0.0009635523656394577, 617426000000.0]
[-0.07484137008376765, 0.0058726572417853, 0.0006567332861351686, 617431000000.0]
[-0.03686375273559543, 0.015316900625871975, 0.0008248181252549168, 617436000000.0]
[-0.03490907966143729, 0.025857261765621906, 0.0007803190604764158, 617441000000.0]
[-0.07563226029768957, 0.033866880508661525, 0.0008509185041340822, 617446000000.0]
[-0.06281464400254827, 0.013897991068698486, 0.0006406948055384711, 617451000000.0]
[-0.02827875899938575, 0.0068253739798722415, 0.0004984952672921592, 617456000000.0]
[-0.04978136175150368, 0.012266715054698289, 2.1761929775872095e-05, 617461000000.0]
[-0.07322328811137296, 0.03163134444244013, 5.101690434133508e-06, 617466000000.0]
[-0.04773898426339221, 0.028502734375372065, 0.00019196778923997052, 617471000000.0]
[-0.05765143037140106, 0.02180550516357797, 0.00016208942661107063, 617475000000.0]
[-0.016081955673835073, 0.023523434199157096, -6.092001439479417e-06, 617480000000.0]
[-0.0474347958525024, 0.00850551356876094, -0.0006422327221495507, 617485000000.0]
[-0.040428952447682694, 0.018969160206072994, -0.0004941925664747974, 617490000000.0]
[-0.043183734383718746, 0.024059851608065255, -5.299316312088408e-05, 617495000000.0]
[-0.05211655517638169, 0.008617054901104036, -0.0004978887420253336, 617500000000.0]
[-0.07394882034853575, 0.02041804162691143, -0.0001281539310060235, 617505000000.0]
[-0.04566942436977411, 0.02828495942914287, 0.00040577353633370353, 617510000000.0]
[-0.03626913117535661, 0.025260460012112965, -0.00018845105380382111, 617515000000.0]
[-0.06521880797018163, 0.0011124120296452586, 0.0002431166098512774, 617520000000.0]
[-0.04303038309643357, 0.044256715247255315, -0.00019546576165469624, 617525000000.0]
[-0.042810357623635054, 0.01354481951218907, 1.7985401433373587e-05, 617530000000.0]
[-0.05034303345171626, 0.004014837824031555, 0.00023604230820079925, 617535000000.0]
[-0.02184740901994475, 0.014718541482307805, 7.437417105719233e-05, 617540000000.0]
[-0.056621205059233966, 0.026729568616739356, 0.000246714933029298, 617545000000.0]
[-0.03380797307484049, 0.021638726094201765, 0.0005450406609572267, 617550000000.0]
[-0.015709968434383163, 0.00040956655238647346, 0.0005839971967723095, 617555000000.0]
[-0.035496385678964064, 0.0036305903339672457, 0.0005121354813895397, 617560000000.0]
[-0.07057209405981929, 0.0064209020699134475, 0.0005475228935723496, 617565000000.0]
[-0.04347433132774147, 0.0033086095426479306, 0.0003101892778989953, 617570000000.0]
[-0.009719106787229523, 0.016780634129598668, 0.0005055376449684588, 617575000000.0]
[-0.008911597034380863, 0.04361351972712483, 0.0002079777468243487, 617580000000.0]
[-0.022018555723517765, 0.0293377853396141, 0.0003308298814093941, 617585000000.0]
[-0.044690789768377634, -0.00028072896295968167, 0.00010795509574145149, 617590000000.0]
[-0.027446546916603573, 0.026350609475658676, 0.00019547793369568733, 617595000000.0]
[-0.0032172868576167933, 0.03767433907339561, -0.0002461133728763015, 617600000000.0]
[-0.024495111940005088, 0.02179499344452355, 0.00013278709913336047, 617605000000.0]
[-0.019014717269305398, 0.03002511216920781, 0.0004674586684166658, 617610000000.0]
[-0.04555251784520083, 0.010692767409120224, 5.8570755719999515e-05, 617615000000.0]
[-0.0031457436390483658, 0.02646409689873764, 3.6921952171777345e-06, 617620000000.0]
[0.0027384689254791594, 0.009955330586869971, 1.3128189913564503e-05, 617625000000.0]
[-0.02301284337086743, 0.0016155610581274939, 4.556336139775773e-05, 617630000000.0]
[-0.0100273229817799, 0.03099523290090578, 7.769632878827708e-05, 617635000000.0]
[-0.046861325042193785, 0.032262694716111345, -0.00018415144910627422, 617640000000.0]
[-0.0394944502611839, -0.0026736424737923044, 0.00014657137917141252, 617645000000.0]
[-0.009027621230720826, 0.03257924349235954, 0.00013783079642609372, 617650000000.0]
[0.01704644886386985, 0.008452333803831612, 0.0007299301616273129, 617655000000.0]
[-0.02485899246776481, 0.02786688499971128, 0.0004796424121593575, 617660000000.0]
[-0.04860923839873499, 0.03971363855867145, 0.0003971549526120444, 617665000000.0]
[0.0036620292078057975, -0.007067790069106249, 0.00019454879205372164, 617670000000.0]
[0.009737878020154717, 0.007672508399251592, 0.0007568054725577836, 617675000000.0]
[-0.035659115898672836, 0.028694571538762315, 0.0003797196867601435, 617680000000.0]
[0.008816467475171747, 0.026269671695918508, 0.0002367836718413237, 617685000000.0]
[-0.029474582247894218, -0.02595556695757835, 0.00022706389696983692, 617690000000.0]
[-0.015724805081734246, 0.011371189335161375, 0.0004913643554432326, 617695000000.0]
[-0.0279827320669966, 0.04156249277767494, 0.00031013428763097855, 617700000000.0]
[-0.0021891634588342406, 0.043253924278869316, 6.95865990759373e-05, 617705000000.0]
[0.0030375235875442098, 0.02502228238308445, 0.0002652240906886327, 617710000000.0]
[-0.03707425695127394, -0.001086022330114577, -6.069193486949682e-05, 617715000000.0]
[0.006003746384459392, 0.03077755377831661, 0.0002543386251145036, 617720000000.0]
[-0.0026453339839004695, -0.020619214739737008, 0.00041982147919643553, 617725000000.0]
[-0.03991286875373543, 0.03557606866825725, 1.3450768757096489e-05, 617730000000.0]
[-0.013519746351612426, 0.0362921529735214, 0.00014405688761031212, 617735000000.0]
[-0.030178888255365962, 0.02237520955865586, -0.000114828826728263, 617740000000.0]
[-0.022867892025829888, 0.009457126598609141, 5.871284780118199e-05, 617745000000.0]
[0.021842799389217894, 0.02091372866914576, 0.0006577401334373015, 617750000000.0]
[-0.011196332123949004, 0.026451731686152797, 0.00017165252331865363, 617755000000.0]
[0.005105732373634328, 0.04474311624296179, -0.00011212422978729261, 617760000000.0]
[0.007856462160418602, 0.009926289313776813, 2.3315653784755625e-05, 617765000000.0]
[-0.005031424564272485, 0.015649813203360858, -0.00011588492313187678, 617770000000.0]
[0.010343124117214697, 0.023927165293598358, 0.0001382234632349908, 617775000000.0]
[-0.02684942129280126, -0.0003861334222873998, 8.17551822915913e-05, 617780000000.0]
[0.002490549712812852, 0.0038730767011057807, -0.0001986653483919776, 617785000000.0]
[-0.018043390767798526, 0.054887810627143, -0.00011000034374026411, 617790000000.0]
[-0.015823810919481502, -0.010793938874936876, 0.00034207833725887946, 617795000000.0]
[0.0051154324127289175, -0.005799091901964235, 0.00010842365362414757, 617800000000.0]
[-0.002429601339423542, 0.020651916632354904, 0.0002600393695727602, 617805000000.0]
[0.0035967192527865165, 0.008714607805451843, 0.0003508513675592121, 617810000000.0]
[-0.007257199928069518, 0.06541495382134607, 7.382337566320805e-05, 617815000000.0]
[0.0029414332109420262, 0.03712983962865176, 0.00023320198979293215, 617820000000.0]
[-0.017148569024441316, 0.011381179938649347, 0.0004803581707776393, 617825000000.0]
[-0.01590994081684499, 0.03432808702813462, -0.0002948584643579519, 617830000000.0]
[-0.016563943164544622, 0.023709568660299548, 0.00030509166371655086, 617835000000.0]
[0.0215423217829957, 0.01586543936525992, 0.00016558998622972644, 617840000000.0]
[-0.019718070193660425, 0.004796683573685019, 6.411339011666282e-05, 617845000000.0]
[-0.011671890781689735, 0.025323016786535854, 0.000116368928941455, 617850000000.0]
[-0.005013290802262985, 0.01135574552313323, -0.00016339200135116316, 617855000000.0]
[-0.021203241869612893, 0.05793653501047027, 0.00016042273788220455, 617860000000.0]
[0.032075965799222124, 0.028800424320254495, 6.842669856076735e-06, 617865000000.0]
[0.009010437367518255, -0.008034181048073068, 0.0006636185245789585, 617870000000.0]
[-0.008349502905411367, 0.005478758958613345, -0.00023468346123240127, 617875000000.0]
[-0.0226649483441529, 0.0050430144047419155, 0.00013689196411505503, 617880000000.0]
[0.006860208349415886, 0.026447818451885326, 0.00027355010194239865, 617885000000.0]
[0.011331788182253989, 0.019018524957939414, 0.0003517842877109558, 617890000000.0]
[-0.009682539194330476, -0.011724284864863946, 2.869253792049721e-05, 617895000000.0]
[-0.008932013081295702, 0.0019377934302396253, 0.0001760491744061407, 617900000000.0]
[-0.01639293124370906, 0.019438805437187234, 5.998325484557322e-05, 617905000000.0]
[0.014316797402244334, 0.014802242312767893, 0.00011979390318535685, 617910000000.0]
[-0.028489183263902915, 0.04652482126593737, 7.99295711166197e-05, 617915000000.0]
[0.0006890181786060453, 0.028315920936653048, -6.243297226685894e-05, 617920000000.0]
[0.012926720151116566, 0.036310411930830344, 0.0006147838070348362, 617925000000.0]
[-0.00044733771748484933, -0.012397035350223944, 0.00023170264704100503, 617930000000.0]
[-0.005859640553487765, 0.019222657152172928, 7.775906495684989e-05, 617935000000.0]
[0.0034962103692159213, -0.01887034781510875, -0.0002589211871204323, 617940000000.0]
[-0.0057849582927875995, 0.03689395310341494, 5.856828442526844e-05, 617945000000.0]
[0.016228638594408974, 0.024237260650167267, 0.0002146378333396761, 617950000000.0]
[0.010253303183769949, 0.036859312193958174, 0.00011921318833232867, 617955000000.0]
[-0.00126515736388585, 0.03453230376870172, -8.5037926292809e-05, 617960000000.0]
[0.01427336631788878, 0.018338153616918575, -3.4565563797451994e-05, 617965000000.0]
[0.018009758274513257, 0.044558019663900675, 0.0004540671544660672, 617970000000.0]
[-0.002500239936883106, 0.016188404499647025, 0.00011230745510656603, 617975000000.0]
[0.008440413633441345, 0.014234244741019217, 0.0002767766337630079, 617980000000.0]
[-0.010413809852954266, 0.02430416877968729, 5.074353214282469e-05, 617985000000.0]
[0.013419508941175043, 0.032310429109441506, 0.0001494589713394359, 617990000000.0]
[-0.0010871244916261973, 0.014091074275913315, 0.00027608258599710374, 617995000000.0]
[-0.014828485014056512, 0.05696993953578063, 1.0669020588254587e-05, 618000000000.0]
[-0.017729662920046105, 0.007293663084672915, 0.00015757736668126684, 618005000000.0]
[-0.007619547383940264, 0.034033881951174384, 6.146598858696138e-05, 618010000000.0]
[0.018540996735790363, 0.018472614543281307, 0.00026518885172696117, 618015000000.0]
[0.010966367974800103, 0.027924269569810173, 0.00043028308394007765, 618020000000.0]
[-0.006725405826205315, -0.01430935733440071, 0.00014805484428220074, 618025000000.0]
[0.01879123122625523, 0.017996593103150698, -5.6870217364508435e-05, 618030000000.0]
[-0.007680498357500048, 0.04027948020757651, 0.00018064774630090682, 618035000000.0]
[-0.004963939545974951, 0.012393479597602633, 7.300751183372195e-05, 618040000000.0]
[0.03332332398219235, 0.016359768080565593, -0.00020343440213463614, 618045000000.0]
[0.007542027794844797, 0.027539610079138466, -0.00012976150958850794, 618050000000.0]
[0.021357316067806168, 0.01020656581619005, 5.310863356355354e-05, 618055000000.0]
[0.035234755279038174, 0.059368202862948014, 0.00018921423812186621, 618060000000.0]
[0.005226595649313404, 0.012549081780582297, 0.0002152597532313673, 618065000000.0]
[0.006843191911929575, 0.0310903250984955, 4.569016913621017e-05, 618070000000.0]
[-0.01486496383890961, 0.011965732012179608, 0.00016745381455170917, 618075000000.0]
[-0.014543400994582924, 0.019584986359860956, -2.9427961632238087e-06, 618080000000.0]
[0.006090669740589956, 0.030760130648149385, 0.0005519872016391153, 618085000000.0]
[-0.014556046670339138, 0.02739620844354545, 0.000384879895020202, 618090000000.0]
[-0.03963745031018261, 0.01672368305030325, 9.131404737363385e-05, 618095000000.0]
[0.007114373875787511, 0.051183465123190594, 0.0001515516105135212, 618100000000.0]
[-0.008236844684081764, 0.00791049147401187, 0.00020412182903602332, 618105000000.0]
[0.004645274310124714, 0.006487118134579948, 0.0003567485334409668, 618110000000.0]
[-0.03647426380305264, 0.061511190527023085, 0.00024264054536337254, 618115000000.0]
[0.016950019126420267, 0.033170085713893, 0.00042961266345634076, 618120000000.0]
[-0.018717242075031313, 0.03655795673529686, 0.00014107149245564532, 618125000000.0]
[0.003985645636058864, -0.0017813107077066584, -9.07439957402671e-05, 618130000000.0]
[-0.0006861584200937362, 0.02390969884917591, 0.0004086997126448641, 618135000000.0]
[0.010754243788874162, 0.039779532557906006, 0.00016609852993995706, 618140000000.0]
[-0.009265925736326916, 0.013332022964891355, 0.0004858492990061527, 618145000000.0]
[0.023504039552632475, 0.028231745676298582, -4.555689057442002e-05, 618150000000.0]
[0.019896994380550117, 0.00738899655931596, 0.000492945299699119, 618155000000.0]
[0.0013336830218822469, 0.02756288227956354, 9.589721642027594e-05, 618160000000.0]
[0.017242542081146114, 0.025829854507336592, 0.00016023110033203686, 618165000000.0]
[-0.003077409548915367, 0.00473320887230742, 0.0004230028782637751, 618170000000.0]
[0.004253482673405029, 0.01698120449313624, 0.0003705649693266173, 618175000000.0]
[-0.0011883993178021918, 0.009826688807744836, 0.00037468032878321903, 618180000000.0]
[0.0058232443840043405, 0.044733265807591446, -3.129453867862085e-05, 618185000000.0]
[-0.005541904245468375, 0.008259286553660615, 0.0006554835957451542, 618190000000.0]
[0.0022681021437193413, 0.031008483847231417, 0.00020774691130160612, 618195000000.0]
[-0.005050990204934795, 0.028165473337971664, -1.9856830599871523e-05, 618200000000.0]
[0.007285749949164181, 0.020045493134258213, 0.00022913891683306348, 618205000000.0]
[-0.001664419344083892, 0.06087155962667498, -0.00013599389440718915, 618210000000.0]
[0.03771851829298434, 0.03181684655250074, 0.0002441774024974801, 618215000000.0]
[0.005089235826380399, 0.03601685050395025, 0.00038692501512115236, 618220000000.0]
[0.003798261173480343, 0.01232027823447286, -0.00011495809268355462, 618225000000.0]
[-0.013749512180318123, 0.02949593727482127, 0.0005187391274459508, 618230000000.0]
[0.0015549295809615692, 0.014641555059524466, 0.00014368327727477278, 618235000000.0]
[0.010615823971570784, 0.008215030675835011, 0.0001696870070146399, 618240000000.0]
[-0.0023013572454439277, 0.0195355804116416, -3.7638926645933916e-05, 618245000000.0]
[0.016193032186358595, 0.017994148953882416, 0.0002602660665889071, 618250000000.0]
[-0.022008161857492426, 0.030020052241929513, 0.0005070246831497103, 618255000000.0]
[-0.02588425092387365, 0.02341802869592078, -6.569110707595961e-05, 618260000000.0]
[-0.0015242217329793743, 0.033424395050618984, 2.848962622238645e-05, 618265000000.0]
[0.015754970827659965, 0.032848432416289555, -0.0002855880970689332, 618270000000.0]
[0.010707365514645177, 0.01505564891296607, 0.0001502438302622387, 618275000000.0]
[-0.041112251670303177, 0.053680735118873356, 4.7248943573652323e-05, 618280000000.0]
[0.03783158325504157, 0.03799183581364734, 0.00022222489924160805, 618285000000.0]
[-0.027430837818085065, 0.0028002709057772836, -1.4192664158898507e-05, 618290000000.0]
[0.008812524235660398, 0.017602765222756004, 0.00013205070873877582, 618295000000.0]
[-0.034121256167784574, 0.0023331962856110375, 0.00010728410802859213, 618300000000.0]
[0.002264918707543544, 0.031138259148516038, 5.3802085009038855e-06, 618305000000.0]
[-0.021602848721872514, 0.023977009492643295, 1.0167861295020628e-05, 618310000000.0]
[-0.014871609006107216, 0.006143897345203184, 0.0006123161293960797, 618315000000.0]
[-0.019262500578085488, 0.015094856032592278, 6.427917729201268e-05, 618320000000.0]
[-0.005399860426459443, 0.03584154064726177, 0.0004911075014511213, 618325000000.0]
[-0.014349966522918159, 0.07259676150346922, 0.00033469130644460116, 618330000000.0]
[0.0018883473319223805, 0.017167811437984282, 0.00016368681726239295, 618335000000.0]
[-0.02909598733274836, 0.01255270463572664, 0.0001705176910028721, 618340000000.0]
[-0.012632655560836849, 0.03612409159566936, 0.000489896406788097, 618345000000.0]
[-0.03357835987490781, 0.023976434210168922, -0.00014642640947402783, 618350000000.0]
[-0.008721074942715198, 0.019682408926859535, 0.000142136068114748, 618355000000.0]
[-0.037570518292137124, 0.05255843818968105, -3.9697882509885505e-05, 618360000000.0]
[-0.04872215222212391, 0.04428170150544547, 0.0003357371432015421, 618365000000.0]
[-0.01790060880804371, 0.029365788089136226, -0.0001099853392835869, 618370000000.0]
[0.0010039227950620136, 0.028729070627577156, 0.0002474487926450612, 618375000000.0]
[-0.004828037884614091, 0.007553036449040932, 0.0002749620564039223, 618380000000.0]
[-0.03793456769743801, 0.019470856617575236, -0.00014666739431184577, 618385000000.0]
[-0.02455322594741382, 0.04172933871651443, 0.00021381740431486725, 618390000000.0]
[-0.011002998179280868, 0.015882089102733025, 0.00014803400948355816, 618395000000.0]
[-0.008430705059465448, 0.03339166151521313, 0.000420085596289215, 618400000000.0]
[0.004901817546977653, -0.003827343245033088, 0.00011150924196868984, 618405000000.0]
[-0.029548940516557903, 0.028230119159944653, -3.82000847946975e-05, 618410000000.0]
[-0.01360538315066133, 0.029157653697144494, 0.00020473699796436947, 618415000000.0]
[-0.0382696486722577, 0.023176513478039933, -0.00022522152532677018, 618420000000.0]
[0.007384899952408014, 0.02422129796475171, 0.0003867700959248809, 618425000000.0]
[-0.003115528582281285, 0.06205844165732058, 0.00020325849839059748, 618430000000.0]
[-0.06209169151284589, -0.00485247435432188, 0.0003872435238656012, 618435000000.0]
[-0.01908745868179371, 0.025283381979971244, 6.639423363016863e-05, 618440000000.0]
[-0.05089996028567394, 0.03269404356372044, 0.00010593960255861072, 618445000000.0]
[-0.02251741659843119, 0.016100113977970634, 8.683824495239872e-05, 618450000000.0]
[-0.01826768676144118, 0.04424329143885926, 0.0002494343330757547, 618455000000.0]
[-0.010239533979045793, 0.04166400835386614, 3.263570624329121e-05, 618460000000.0]
[0.000983705889741733, 0.023014309648321386, -5.0069521765036475e-05, 618465000000.0]
[-0.022017357755437634, -0.0036717320706469055, 0.00025036726621241185, 618470000000.0]
[-0.019307051434593096, 0.02947383082928415, 5.2663827035912675e-05, 618475000000.0]
[-0.05780589913730835, 0.011267189324887513, 0.00032086314643159396, 618480000000.0]
[-0.04363832839874476, 0.005445986937228878, -7.264313879233367e-05, 618485000000.0]
[-0.05126636311574424, 0.05165217846518536, 0.0005573355555355907, 618490000000.0]
[-0.023197766777653794, 0.0345378979783868, 0.0003985633822868997, 618495000000.0]
[-0.007036625414361536, 0.036082019283059014, -3.4240149725883355e-05, 618500000000.0]
[-0.02275641551912503, 0.035600120890422846, 0.00014989776962573087, 618505000000.0]
[-0.0361619757982144, 0.03195203061369754, 0.00023619056737276395, 618510000000.0]
[-0.037143147551181435, 0.0252669734522791, 0.0001162337128304941, 618515000000.0]
[-0.04126966590255161, 0.022553725159653207, 0.0004127052955201357, 618520000000.0]
[-0.030515959776083307, 0.011595822031324757, -0.0001426479667136145, 618525000000.0]
[-0.024799972490589205, 0.032417618629064185, 0.0003019443739867177, 618530000000.0]
[-0.017101474228060347, 0.0288724641217559, -6.715085200216205e-05, 618535000000.0]
[0.0016971370386381496, 0.01637154262379368, 0.0002494112694304901, 618540000000.0]
[-0.03562725270155481, 0.057675920210510725, 0.00011916522358917479, 618545000000.0]
[-0.053106915914060054, 0.037798699385876905, -7.848928628515387e-05, 618550000000.0]
[-0.018872336445706187, 0.020028806159431534, 0.0003061309187584525, 618555000000.0]
[-0.03616098899630772, 0.026231218752049805, -2.4777335489798834e-05, 618560000000.0]
[-0.023242367749566256, 0.017329804301615376, 2.3063939212546555e-05, 618565000000.0]
[-0.06493950272435453, 0.031899254851604074, 7.90577147699283e-06, 618570000000.0]
[-0.03894293960648147, 0.042753901520925196, 0.00018606397015980726, 618575000000.0]
[-0.020682486624513895, 0.011925164856078928, 0.00017702654577487876, 618580000000.0]
[-0.04603037113306581, 0.03628950998743863, 0.00030166703285986656, 618585000000.0]
[-0.036785493791609614, 0.015817269448885923, -7.243108944172882e-05, 618590000000.0]
[-0.021390775782709565, 0.043793992663402816, -4.705688651774183e-05, 618595000000.0]
[-0.027308664025652275, 0.05472054983923283, -6.901483128520875e-05, 618600000000.0]
[-0.020329177715546945, 0.020695377243250913, 0.00037752721995087946, 618605000000.0]
[-0.041040758694727376, 0.03262357785914938, 0.0003180728441122889, 618610000000.0]
[-0.06298208850336774, 0.07614075801537631, -1.1545560636771259e-05, 618615000000.0]
[-0.0655199199704959, 0.038834076235472505, 0.0003337600361234994, 618620000000.0]
[-0.029690152175071847, 0.0358557944530632, 0.00035617132868275063, 618625000000.0]
[-0.032133434467531405, 0.03401407087764832, -6.408947326439279e-05, 618630000000.0]
[-0.02678209398046037, 0.04175614682050831, 0.000370278619517587, 618635000000.0]
[-0.07361537863687442, 0.04429556466844272, 0.0004890220198354004, 618640000000.0]
[-0.04928215745733389, 0.043044819172735525, 0.000416006160521088, 618645000000.0]
[-0.03608200116196765, 0.018280960935918352, 0.00019886092528015857, 618650000000.0]
[-0.030434697388350463, 0.051117246996517415, -5.598204394074893e-05, 618655000000.0]
[-0.0567059621540245, 0.040824230255320115, 0.0004912838432397208, 618660000000.0]
[-0.058289701728793886, 0.050625787633186634, -0.0003218898813234229, 618665000000.0]
[-0.05238395491120767, 0.051240499386065716, 0.00028577055895861157, 618670000000.0]
[0.06822589497232183, 0.15326535948261744, -9.270777893421954e-05, 618675000000.0]
[-0.17188876875299816, -0.08804923797347074, -4.08903904923316e-05, 618680000000.0]
[0.04064462950301604, 0.14308381942115453, -0.00010502629585762951, 618685000000.0]
[-0.046151533839253904, 0.029863587430980373, -0.00047414444495305, 618690000000.0]
[-0.1955209233561129, -0.11947668123275629, -0.0002588162284500682, 618695000000.0]
[0.09384872843886746, 0.1300200246976811, -0.0008385220459329618, 618700000000.0]
[-0.03874428494735069, 0.01294903139882152, -0.0007965956641423369, 618705000000.0]
[-0.2221306111850694, -0.10695932822317712, -0.0006309756860475334, 618710000000.0]
[0.12115004312255642, 0.16496728570337207, -0.0008809425875559613, 618715000000.0]
[-0.09740885558716261, 0.018846582928368025, -0.000647890754588997, 618720000000.0]
[-0.06546104564350386, 0.020577956753601023, -0.0005430025174533316, 618725000000.0]
[-0.07661247906821547, 0.07011278506914288, -0.0004667762975272791, 618730000000.0]
[-0.08806608535427535, 0.041046621500517425, -0.0005473204624726609, 618735000000.0]
[-0.0668945752039515, 0.048413767543764766, -0.0007272169448493061, 618740000000.0]
[-0.06388368543228555, 0.019378246961787242, -8.857060039826583e-05, 618745000000.0]
[-0.06481072591578883, 0.0164083896383614, -0.00033163817985602264, 618750000000.0]
[-0.053592752801323834, 0.019997711455460244, -6.513260955611587e-05, 618755000000.0]
[-0.06717384110770307, 0.011439230268667618, 6.274716480712132e-05, 618760000000.0]
[-0.055324630081491875, 0.031030450648459863, 4.482298722315874e-05, 618765000000.0]
[-0.05975700193546324, 0.019200405359190528, 0.0004318460879553405, 618770000000.0]
[-0.07113342777093634, 0.03775098489071037, 0.00025320657935564046, 618775000000.0]
[-0.0646018500234395, 0.03448440563630528, 0.0005327604825532346, 618780000000.0]
[-0.05903196212639717, 0.030150600051083883, 0.00029943158246916406, 618785000000.0]
[-0.07017034853060966, 0.046845363076214945, 0.0003959639580833819, 618790000000.0]
[-0.08555430148806213, 0.020525119796872625, 0.00044642814843787437, 618795000000.0]
[-0.06628315049952087, 0.0041140333233128795, 0.0004076662719791713, 618800000000.0]
[-0.06821800975007766, 0.022931870737241955, 0.0007095968490430777, 618805000000.0]
[-0.0807949165925374, 0.014381815627046993, 0.0004445746401640152, 618810000000.0]
[-0.036691394062994126, 0.003333207157093978, 0.00025304330864388215, 618815000000.0]
[-0.05781035764338368, 0.054755608567903125, -0.00023930335471431154, 618820000000.0]
[-0.07442981269604884, 0.0358919255644329, 7.887995656617284e-05, 618825000000.0]
[-0.056566523643318274, 0.019133182618877094, 0.00010047663007181134, 618830000000.0]
[-0.06154245193254605, 0.029093705561078324, -0.00037136542008278173, 618835000000.0]
[-0.06314841187009505, 0.03596997869511047, -2.2559867197489367e-05, 618840000000.0]
[-0.04135402108288415, 0.03317636868082112, -0.0003930467562141172, 618845000000.0]
[-0.06895983484904494, 0.06035150840039481, -0.0003801305819025687, 618850000000.0]
[-0.11724923859232461, 0.039326214420621564, 6.049547239401522e-06, 618855000000.0]
[-0.08395465091800475, 0.04427153727969774, 4.921978037740124e-05, 618860000000.0]
[-0.05672065185240556, 0.017048718138439008, -0.00022000341541878566, 618865000000.0]
[-0.07207290032793492, 0.011551810034134323, -0.00023644631130454683, 618870000000.0]
[-0.0521420639756452, 0.021389639237024548, -0.00018487387419320633, 618875000000.0]
[-0.0916076714633586, 0.0329455210753361, 9.810011198517447e-05, 618880000000.0]
[-0.05748440877088607, 0.013212466384987069, -7.81735038445295e-05, 618885000000.0]
[-0.0618936292649738, 0.004933024177268354, 0.0001609737854061234, 618890000000.0]
[-0.06441904155471996, 0.042689697751506654, 0.0003838569678821523, 618895000000.0]
[-0.06345897501786041, 0.03440428189250988, 0.0002450562593529471, 618900000000.0]
[-0.08272252823451798, 0.02460511220049323, -1.8115823582025954e-06, 618905000000.0]
[-0.09104011567436847, 0.049213573724757084, 0.00023611545996832267, 618910000000.0]
[-0.055059737309233366, 0.05067434446371003, 0.0003536997276515696, 618915000000.0]
[-0.0849178216135675, 0.040565781304691836, 0.0002615552637977652, 618920000000.0]
[-0.09378220043338391, 0.028074252766187986, 9.412868616186354e-05, 618925000000.0]
[-0.04607441780587039, 0.03114284365820846, 0.00030402047718716083, 618930000000.0]
[-0.059644058964399976, 0.013350271353837751, 6.038028747325333e-06, 618935000000.0]
[-0.07548384403481301, 0.031731130606336054, 3.12791790922007e-05, 618940000000.0]
[-0.07151398210382819, 0.047959974190299466, 0.00011507177716161074, 618945000000.0]
[-0.06360609777520586, 0.021055074064879116, -0.00016867711770343207, 618950000000.0]
[-0.08133917600167773, 0.053089934951614924, -5.213532962496863e-05, 618955000000.0]
[-0.054641748085370284, 0.05508784315384918, -9.755241928947856e-05, 618960000000.0]
[-0.06236462682886071, -0.0051957426660808395, -6.372729678289166e-05, 618965000000.0]
[-0.05686417847144922, 0.04094537122069193, -7.78845337211934e-05, 618970000000.0]
[-0.04461189312970737, 0.004823255415817362, -0.00023272410560598787, 618975000000.0]
[-0.06802129037837354, 0.016144919231082536, 8.785641945812769e-06, 618980000000.0]
[-0.21055894273421644, -0.06861570841449721, 0.0001261836427920551, 618985000000.0]
[0.0638963272960449, 0.18097896956238513, 0.0002727556914972994, 618990000000.0]
[-0.03578715189374168, 0.016551602279973633, 0.00011912909830274826, 618995000000.0]
[-0.206372899930485, -0.13887072774702874, 0.0005152040968448152, 619000000000.0]
[0.0976541169121342, 0.16628486316764174, 0.00014054320734458483, 619005000000.0]
[-0.06100011932084535, 0.04223562360455793, 0.000344912399527916, 619010000000.0]
[-0.23025260728480207, -0.10681357344005314, 0.0005814236045510993, 619015000000.0]
[0.08964260535718864, 0.1811522765093804, 0.0008359590499230194, 619020000000.0]
[-0.20304868510039492, -0.07110978485607375, 0.0005951927016868532, 619025000000.0]
[-0.05197701596934087, 0.048685192161066045, 0.0007438791222203232, 619030000000.0]
[0.07064337514029594, 0.14402393748020925, 0.000701057950021654, 619035000000.0]
[-0.15967562467228436, -0.06925535405418555, 0.0002526751722559681, 619040000000.0]
[-0.03337289286813501, 0.05433565957365487, 0.0005229338430657851, 619045000000.0]
[-0.05168777488379023, 0.033838062919220493, 0.00044115738960363225, 619050000000.0]
[0.08403052739580782, 0.13566071710065186, 0.00014036349832595937, 619055000000.0]
[-0.18295750723299728, -0.06451834102847538, 0.00030627914007005735, 619060000000.0]
[-0.060502722812109284, -0.0008909257933595385, -0.00025277194874874514, 619065000000.0]
[-0.07964357764011933, 0.02686335618214293, 0.00021075154852715131, 619070000000.0]
[-0.05308737183676752, 0.04169149999120203, 0.00034407926297077304, 619075000000.0]
[-0.007722632088185445, 0.046033762177411675, -0.0001756362557853592, 619080000000.0]
[-0.0549162512928336, 0.03452674726372977, -0.00014009305501332624, 619085000000.0]
[-0.025004555660847586, 0.02695988170417677, -0.00025450445794402646, 619090000000.0]
[-0.06820065123672071, 0.04034795191624682, -0.00044397269774146725, 619095000000.0]
[-0.04103873297944649, 0.03532670120254171, -0.0001785955342280884, 619100000000.0]
[-0.042289392616165086, 0.045527015482872614, -0.0006336328587882951, 619105000000.0]
[-0.03726593426139018, 0.042199753655872335, -0.0004696748809125913, 619110000000.0]
[-0.0543205359424938, 0.06427751933499473, -0.0004556016485661842, 619115000000.0]
[-0.03383569752103243, 0.04456004215996318, -0.0003997533055128052, 619120000000.0]
[-0.020323084655049138, 0.052930519569633176, -0.00047404579794252567, 619125000000.0]
[-0.06208684513230543, 0.06509195763343366, -0.00042428880717665894, 619130000000.0]
[-0.045435650995424404, 0.04937968810434517, -0.00016819905617564734, 619135000000.0]
[-0.056940771273842, 0.025352170474864204, 4.816869927069971e-05, 619140000000.0]
[-0.01271150779112679, 0.024448081740164496, 8.630971827721049e-05, 619145000000.0]
[-0.07121595503597039, 0.04975730016471725, -5.299918735655468e-05, 619150000000.0]
[-0.050716474545415724, 0.02615578779000842, 7.813347712215115e-05, 619155000000.0]
[-0.056316784571856064, 0.01955297384057605, 0.00014337834185337083, 619160000000.0]
[-0.05383661007446412, 0.04618292376771868, 0.00011510752936791347, 619165000000.0]
[-0.05970970813384669, 0.05393896944823841, 0.00027287602160496545, 619170000000.0]
[-0.05165763986568442, 0.05384110679019727, 0.00027799761825512064, 619175000000.0]
[-0.03968932690228626, 0.020071801309536487, -0.0002579317286499553, 619180000000.0]
[-0.040288586499350416, 0.06530263702269465, -0.00012514879024624526, 619185000000.0]
[-0.022864606819399523, 0.019979522584130705, -0.00030938241638217947, 619190000000.0]
[-0.06000672725768899, 0.059556830581284, 0.00010275241084089288, 619195000000.0]
[-0.05336826803551843, 0.05569183579418703, -0.00039921740966822344, 619200000000.0]
[-0.05478969725202457, 0.03453134990162245, 0.00016037139744604705, 619205000000.0]
[-0.0022081522055044794, 0.03762326171175912, -8.699290271708364e-05, 619210000000.0]
[-0.0563108245076017, 0.05745990144915594, -0.0004184539591871496, 619215000000.0]
[-0.004404378958489479, 0.05080791342443666, 7.6785255115212e-05, 619220000000.0]
[-0.04581734807461837, 0.0739251873387104, -0.000228758402760581, 619225000000.0]
[-0.02986224500050845, 0.04597100231832614, -0.00018597424966037093, 619230000000.0]
[-0.027638893483864436, 0.0534618590024109, -0.00014589332987604704, 619235000000.0]
[-0.031725392526704956, 0.04704582108096642, -1.1436532397635503e-05, 619240000000.0]
[-0.03537074059937311, 0.027952792250720795, -0.00013739069908823366, 619245000000.0]
[-0.03640131065038874, 0.053951286911395765, -0.0002981609527935306, 619250000000.0]
[-0.0392847324162119, 0.04379806962288889, -0.00014932343837393948, 619255000000.0]
[-0.0029124606099250154, 0.021041764677081826, 0.00012076905101393145, 619260000000.0]
[-0.04111694193538153, 0.03833451876209139, -0.00026908481789313327, 619265000000.0]
[-0.019378106415090038, 0.04353835456639273, -0.00023854203943527827, 619270000000.0]
[-0.018060754064437374, 0.046727317251922036, -0.0002982985074052463, 619275000000.0]
[-0.0190784547312792, 0.006814509550670384, -4.198174708549564e-05, 619280000000.0]
[-0.03507239110762904, 0.01500954658063651, -7.720526859545389e-05, 619285000000.0]
[-0.008294371943306143, 0.0425492546991419, -0.00030292511065382335, 619290000000.0]
[-0.030743554273225955, 0.005066486294657224, 0.00031088305076857817, 619295000000.0]
[-0.04736787636705912, 0.010066466680905585, 2.1287069666562275e-05, 619301000000.0]
[-0.04297266319089793, 0.02837291213214543, -1.0938543067864288e-05, 619306000000.0]
[-0.04795190752779889, -0.0010808527850922761, -2.788493028153367e-05, 619311000000.0]
[-0.03607802921272755, 0.057968100930483615, -5.008962429546369e-05, 619316000000.0]
[-0.03487451086806532, 0.027288425090853295, 7.835176267626716e-05, 619321000000.0]
[-0.050521118444447566, 0.04684631208260387, -0.00044014009890176, 619326000000.0]
[-0.030897389282763858, 0.04457573175577144, 9.331126307309806e-05, 619331000000.0]
[-0.043252535060989784, 0.0320698053032352, -0.0002501110037159169, 619336000000.0]
[-0.04751885953474803, 0.032244690390804145, -0.00023884294537549695, 619341000000.0]
[-0.02565741811609583, 0.026240834630878642, -0.0003482848670475139, 619346000000.0]
[-0.013259248293570766, 0.04477702235525783, -2.092660993415068e-05, 619351000000.0]
[-0.02821184596306532, 0.045829288396785295, 2.4591159619047982e-05, 619357000000.0]
[-0.03081681821132655, 0.0319961425404273, -0.00043592180070925165, 619362000000.0]
[-0.02542245238755552, 0.030371735800505832, -2.1200253725661412e-05, 619367000000.0]
[-0.04599250120700254, 0.05175504076418114, -7.097333059214258e-06, 619372000000.0]
[-0.00791556653104137, 0.03526055338828125, -0.0001519595078047664, 619377000000.0]
[-0.012842990088197464, 0.0013347190403448991, 4.3229534652893344e-05, 619382000000.0]
[-0.021082889160984487, 0.03261441847508578, -0.0002905938470537674, 619387000000.0]
[-0.02076831867821217, 0.03588274653110357, -4.933288290391684e-05, 619392000000.0]
[-0.060123860400367185, 0.026511226922861432, -0.00029628723040793113, 619397000000.0]
[-0.05666396912674401, 0.01147172532589957, -0.00020264721904845567, 619402000000.0]
[-0.048800593919668275, 0.04774762569529865, 9.975847220777576e-05, 619407000000.0]
[-0.03199800120576283, 0.027522409288927956, -0.00021627699003647438, 619413000000.0]
[-0.026252098084729454, 0.0526677590118474, -3.2967938755131774e-05, 619418000000.0]
[-0.039568521856608904, 0.06383218294977792, 0.00018275698658359212, 619423000000.0]
[-0.014866490439693928, 0.048676503218260975, -0.00011688598764085887, 619428000000.0]
[-0.013975556101840291, 0.08039228299449828, -7.173002067145845e-05, 619434000000.0]
[-0.03228324248757763, 0.0003642113372854111, -0.0002795190930820204, 619439000000.0]
[-0.02711276050226823, 0.0454753354531097, -0.000345681987775212, 619444000000.0]
[-0.03200266473795163, 0.018075822737003956, -0.00036170218316638233, 619449000000.0]
[-0.040904726012054186, 0.02899255048377296, 0.00025611032199437977, 619454000000.0]
[-0.0007498002897755006, 0.0272288797517935, -5.09149171033223e-05, 619459000000.0]
[-0.039375603901060326, 0.015928027463383086, -5.351565903537122e-06, 619464000000.0]
[-0.04736814440335928, 0.016663555285129902, -0.00018660130890221617, 619469000000.0]
[0.00020387349835835136, 0.029677281163384982, -0.00041425622006279134, 619474000000.0]
[-0.014937901080094377, 0.02806268114411381, -3.9129850435373894e-05, 619479000000.0]
[-0.030493719573336214, 0.016281756823300863, -4.3434438491730506e-05, 619484000000.0]
[-0.006245865618497083, 0.03148851388559142, -0.00047751474086778895, 619489000000.0]
[-0.06071318486776904, 0.028266604736984596, -0.00013734284217156527, 619494000000.0]
[-0.045891124907285474, 0.00731014447537353, -0.0003657395113411665, 619499000000.0]
[-0.027095533298321157, 0.01940699992976861, 0.00010487300578748652, 619506000000.0]
[-0.021681935870842075, 0.019563486395636542, 5.6611455188154995e-05, 619511000000.0]
[-0.008000161907915197, 0.016702430980071147, -0.0002842312628938473, 619516000000.0]
[-0.007770313380239164, 0.029976024526847205, 0.00020604794934345687, 619521000000.0]
[0.02083076458911911, 0.024698633078958705, -0.0005402446543529425, 619526000000.0]
[-0.02012154327485492, 0.06536821730760035, -0.00017239658661134582, 619531000000.0]
[-0.043883429665492364, 0.010421743379914028, -0.00010227483986514528, 619536000000.0]
[-0.03645054063631535, 0.006465105017003259, -0.0002545604352270804, 619541000000.0]
[0.0017846404342782077, 0.05740725257608756, -7.907207344622664e-05, 619546000000.0]
[-0.006651617135261537, 0.04371714365140482, 7.526827207552403e-05, 619551000000.0]
[-0.024175495754785933, 0.014086207514099874, 4.3901084529823786e-05, 619556000000.0]
[-0.009419432081336363, 0.0570890866797074, 3.5008499258576945e-05, 619561000000.0]
[-0.06624518479693847, 0.02816001125412601, -0.00013317491895426317, 619566000000.0]
[0.0025022437134416126, 0.027688831491018657, 0.0001917513977102385, 619571000000.0]
[-0.037409660157409624, 0.013370865275157844, -0.0001661449770368744, 619576000000.0]
[-0.02276344908356084, 0.024174309627336618, -0.00026998199029922736, 619581000000.0]
[-0.015220112816612506, 0.04157591921053886, 3.7597061656254645e-05, 619586000000.0]
[-0.028781289079607555, 0.06421459795358786, 2.5480424518439587e-05, 619591000000.0]
[-0.029015681977886183, 0.03902182726341842, -0.00020102981270128466, 619596000000.0]
[-0.02594396365519455, 0.027947300615176467, -0.0002886704635678244, 619601000000.0]
[-0.023880597062938703, 0.02819080662246997, -0.00023903196887824088, 619606000000.0]
[-0.05211607581988199, 0.023525842904818087, -3.0026480729826688e-05, 619611000000.0]
[-0.030671914767474415, 0.03659421997476086, -0.00022349325546818858, 619616000000.0]
[-0.05058652853026563, 0.049558745880852434, 4.614047340535459e-05, 619621000000.0]
[-0.0160311937508692, -0.002831628124144097, -0.00017315601319000925, 619626000000.0]
[-0.036217583637777544, 0.023194014134607338, -0.00030892983690443155, 619631000000.0]
[-0.004146599159186224, 0.030256193641130382, 3.882836196277193e-06, 619636000000.0]
[-0.05723988292889423, 0.03228604679188074, 5.271828111620694e-05, 619641000000.0]
[-0.03519860481100169, 0.016290279263452924, -0.00013095716561564854, 619646000000.0]
[-0.009988704107774575, 0.020042682934892392, -0.00019845354242435838, 619651000000.0]
[-0.03292402020651255, 0.021112966697919653, -3.2536331122401553e-05, 619656000000.0]
[-0.025543143771736762, 0.013020003034808285, -8.194860896413995e-05, 619661000000.0]
[-0.041736591871099724, 0.03554644703092235, -5.7428935166960166e-05, 619666000000.0]
[-0.03968819552330731, 0.026525881389527182, -0.0005540241034164006, 619671000000.0]
[-0.043982653212979575, 0.022514272525489713, -5.537403104924648e-05, 619676000000.0]
[-0.03508166141282958, 0.02778347971153499, -8.308113918200491e-05, 619681000000.0]
[-0.039646633371749174, 0.015588412656777312, -0.00017101772489298725, 619686000000.0]
[-0.03477208730142848, 0.04863428173454251, -3.1604957374815456e-05, 619691000000.0]
[-0.06200193564182804, 0.003016944527055341, -0.00019421536358795412, 619696000000.0]
[-0.058312899118352954, 0.04298448759696244, 8.564666130458259e-05, 619701000000.0]
[-0.013574201331055042, 0.020643929295323334, -0.00038512133289754215, 619706000000.0]
[-0.034485921532310976, -0.007711844935101832, -0.00016146974708816094, 619711000000.0]
[-0.012849014395400187, 0.002290836529572182, -0.00018405378782371666, 619716000000.0]
[-0.0871115565454818, 0.057174435922317975, -0.00014949122632633357, 619721000000.0]
[-0.039898487988047654, 0.03320118347589349, -0.00022783971518591258, 619726000000.0]
[-0.025060519013074115, -0.006922288345639439, 5.289000897455004e-05, 619731000000.0]
[0.011113287534299965, 0.0038493207558561865, 0.0002583005505648994, 619736000000.0]
[-0.07190265823745882, 0.004746306000689246, 2.066074363540889e-05, 619741000000.0]
[-0.0025193511864481585, 0.04535828676604989, 9.060973452454596e-05, 619746000000.0]
[-0.030766485131425166, 0.015405904428245885, -0.00025172998032508816, 619751000000.0]
[-0.047260050991632274, 0.026410942423959808, 5.514593919304086e-05, 619756000000.0]
[-0.05821876005472047, 0.021983760458887648, -0.00046718769499945196, 619761000000.0]
[-0.027619788683121115, 0.0026359886195028333, 0.00021024639314692916, 619766000000.0]
[-0.07846425976015858, 0.032467993131095566, -2.3668666408476516e-05, 619771000000.0]
[-0.04310218120641861, 0.0012314557347524978, -0.00016292008930710446, 619776000000.0]
[-0.04324855946042424, 0.020561117251543068, 0.0002541551911608889, 619781000000.0]
[-0.07968949830672557, 0.02064023231502441, 2.8809851583964263e-05, 619786000000.0]
[-0.03775458941660424, 0.06379902884079047, -0.00016290618938223644, 619791000000.0]
[-0.06257334486404001, 0.021618304327575708, -0.00031759710776770386, 619796000000.0]
[-0.047358037389589505, 0.008737501570100357, -0.00037746874197503095, 619801000000.0]
[-0.035791097347362355, 0.05145698591839132, 0.00015662662292452326, 619806000000.0]
[-0.03849912789311513, 0.03435910526141621, 4.8535805413926005e-05, 619811000000.0]
[-0.04719904283577756, 0.012449569271219315, -0.0002679310685261689, 619816000000.0]
[-0.05286276770150562, 0.027015827214042554, -0.0002725237834074433, 619821000000.0]
[-0.02035351123614888, 0.0436635498127292, -0.0004140691011966826, 619826000000.0]
[-0.004215634798242593, 0.034392215057260075, 9.023300541399091e-05, 619831000000.0]
[-0.053124977255369965, 0.03166097443565526, -0.0005389837953395932, 619836000000.0]
[-0.04429754470186413, 0.041196052322925295, -5.551778907493414e-05, 619841000000.0]
[-0.03979567758042705, -0.007178160607239959, 0.00013089205249235066, 619846000000.0]
[-0.05669086028942519, 0.007778363268314381, 1.7950289319063094e-05, 619851000000.0]
[-0.02593885760524483, 0.020729314371339194, -7.53002930031909e-05, 619856000000.0]
[-0.045309140831225926, 0.012277121193895058, -0.000274602491824651, 619861000000.0]
[-0.05946378044764102, 0.012595278690010587, -0.00014639222862946068, 619866000000.0]
[-0.06016168645047058, 0.03376597117670795, -0.0002697086644775407, 619871000000.0]
[-0.032409494787227516, 0.035136572606423055, -0.0005867135864532721, 619876000000.0]
[-0.007884084255221961, 0.032862785173339404, -0.00040319564985989383, 619881000000.0]
[-0.05628081824503164, 0.008908495733427436, -0.00041327098926618544, 619886000000.0]
[-0.041052761783984315, 0.04247084740060646, -0.00038111444116605627, 619891000000.0]
[-0.06638684691436728, -0.00334295934270604, -0.00018623049673311754, 619896000000.0]
[-0.038157574444356, 0.02972043724262611, -0.00048614780944700354, 619901000000.0]
[-0.023319200752148522, 2.6436154742645254e-06, -0.00020382995190705144, 619906000000.0]
[-0.13399775249493523, 0.0439242101939791, -2.2420079740669734e-05, 619911000000.0]
[-0.06695241058396781, 0.011106797078390221, 0.00013772628224338943, 619916000000.0]
[-0.011647124297008558, -0.009375597773713646, 6.236530844942273e-05, 619921000000.0]
[-0.1686939413945292, 0.05996754296109015, 0.00032177863851692867, 619926000000.0]
[0.014561521198081956, 0.0008609060786185906, 0.00011178975095491812, 619931000000.0]
[-0.16693902016243978, 0.05987185132450803, 0.00016820357659606594, 619936000000.0]
[-2.1187204132683615e-05, -0.015381407527149062, 0.00037325213164103794, 619941000000.0]
[-0.07253451281458972, 0.014557544714277325, 0.0005172769432675926, 619946000000.0]
[-0.09784279070417831, 0.08601412802086997, 0.00027666449298782697, 619951000000.0]
[0.03126213214364244, -0.018989801627700715, 0.00020389416496448276, 619956000000.0]
[-0.04449693143750452, 0.03173941479294359, 0.0003420998983427036, 619961000000.0]
[-0.1243985278778689, 0.049305109217083934, 0.0002650604470646079, 619966000000.0]
[-0.0034435474954437294, -0.02925385669141746, 0.0002464039944328163, 619971000000.0]
[-0.029525410454424306, -0.007563696598756015, 0.0005122861324247734, 619976000000.0]
[-0.052665599572808315, 0.021929908012630128, 0.0005227655231257501, 619981000000.0]
[-0.053393428685329127, 0.06290747767429992, 0.0003013271946635543, 619986000000.0]
[-0.07145666183188669, 0.014746102874164946, 0.00015687943403701148, 619991000000.0]
[-0.07049127815284503, 0.02488846209314959, 0.00018532785069394936, 619996000000.0]
[-0.07682536782355008, -0.024937372264274723, 2.2897962039450813e-05, 620001000000.0]
[-0.07514051857998899, -0.03827674093610654, 6.791063432413476e-06, 620006000000.0]
[-0.04467740556136446, 0.010650817227274874, 2.674566216767357e-05, 620011000000.0]
[-0.09171440583880748, 0.03881667667893339, -0.00014388714382136924, 620016000000.0]
[-0.06977883236745258, 0.024394450120443036, 0.0001420365573715565, 620021000000.0]
[-0.06653012516768038, 0.03494261446268987, 1.3864736116107917e-05, 620026000000.0]
[-0.0973999347957731, 0.025888553807445636, -0.0004467179903738138, 620031000000.0]
[-0.06136517237759795, 0.018310540671485673, 0.00015343140371388474, 620036000000.0]
[-0.07376334580711238, 0.0019805281322925646, -0.00017151726815892274, 620041000000.0]
[-0.07722106768734668, -0.01682785872633461, 7.185350450417018e-05, 620046000000.0]
[-0.024218191050794008, 0.03502495745748608, -1.4795365638551483e-05, 620051000000.0]
[-0.04498257979542037, -0.011710049099678696, -0.00021353247031380936, 620056000000.0]
[-0.06755452702441136, 0.025233747424646326, 0.0003671263653142459, 620061000000.0]
[-0.09953566400932416, -0.00991783458087694, 0.00011211247749054424, 620066000000.0]
[-0.1253058741694344, -0.005534857758146654, 0.00038548837320693835, 620071000000.0]
[-0.07014454254628023, -0.00974170783213369, 0.00010011620257694898, 620076000000.0]
[-0.040172936316446334, 0.016473855938005984, 9.818876069417296e-05, 620081000000.0]
[-0.05214884524340362, 0.019492549341788488, 9.96198875256195e-06, 620086000000.0]
[-0.062061584699257925, 0.04347943209209071, 0.0002573590928338414, 620091000000.0]
[-0.04848942180705127, 0.03544884185026306, -0.0003740876945777956, 620096000000.0]
[-0.07087825347424824, 0.01873270071830916, 4.807942994827999e-06, 620101000000.0]
[-0.05517192887212527, 0.023266011857138, 0.0002829583925632173, 620106000000.0]
[-0.05544839589316269, 0.05711440746317875, 0.00012396538403016883, 620111000000.0]
[-0.060687035975061594, 0.005626772379827666, 4.770159641503121e-05, 620116000000.0]
[-0.07332059654719787, 0.017866974928174434, -8.958627755624251e-06, 620121000000.0]
[-0.06539216761934283, 0.035582962629303716, 0.00020443045102023756, 620126000000.0]
[-0.05892731071704962, -0.006661175032305594, 1.8854963290327933e-05, 620131000000.0]
[-0.05368079533155843, 0.02002660567546737, -8.77839177556056e-05, 620136000000.0]
[-0.0785710840866672, 0.037077625586417175, -0.000509906472042425, 620141000000.0]
[-0.07592234233880182, -0.0017141951787075123, -0.0002527540445294677, 620146000000.0]
[-0.0660024438789316, 0.009286102695106423, -2.5302010020225178e-05, 620151000000.0]
[-0.04951150024073069, 0.0035668824274157403, -0.00013531531799406844, 620156000000.0]
[-0.12256878009826136, 0.05338471716901231, -9.545200734006746e-05, 620161000000.0]
[0.012954626557596511, -0.016609085457609495, -0.00025653910574586944, 620166000000.0]
[-0.07195503286744205, 0.0012279394657134773, 4.327907014670064e-06, 620171000000.0]
[-0.12465298036718021, 0.04295017274131088, -0.0004469826859252959, 620176000000.0]
[-0.010489956789195346, 0.0019526501762746236, -0.000528595322790287, 620181000000.0]
[-0.041698393920645456, 0.024456016018732887, -0.00045214035577189466, 620186000000.0]
[-0.12057520495737285, 0.014572213897611846, -0.0005961750160304671, 620191000000.0]
[-0.012874411648858455, -0.0090594377043135, -0.00034077078304372335, 620196000000.0]
[-0.10241580332090569, 0.05088196724179364, -0.00024842644216252594, 620201000000.0]
[-0.07145532196628196, -0.010785603319814433, -0.0003597702965844335, 620206000000.0]
[0.04099203985775347, -0.03302228761122851, -0.0004903285819717934, 620211000000.0]
[-0.11988119433781363, 0.033078758099780343, -0.00015467803679691173, 620216000000.0]
[-0.037128430394141175, 0.019327109216222972, -0.00027036829271961027, 620221000000.0]
[0.01863303898237325, 0.0005287681005663267, -0.00024559844254993753, 620226000000.0]
[-0.12590693942500708, 0.040085560995247536, -0.00010253789903623211, 620231000000.0]
[-0.03509207720522527, 0.012449933523935877, -0.00013085239949101805, 620236000000.0]
[-0.05193032401840574, 0.02851120374025283, -0.00023594228705180556, 620241000000.0]
[-0.041306015071645885, 0.014381280694998716, -0.00024533653888807156, 620246000000.0]
[-0.06758620642683799, 0.03187691241162433, 4.116649618632367e-05, 620251000000.0]
[-0.06281855383870419, -0.013700213716861052, -0.0001552560773380421, 620256000000.0]
[-0.027089758624840747, 0.018141372236973857, -0.00043429418453656544, 620261000000.0]
[-0.05645405939870714, 0.002010213813971316, -0.0004193311302796809, 620266000000.0]
[-0.040080464717756864, 0.03732269553959383, -0.00012522127498594814, 620271000000.0]
[-0.02508804755976533, 0.002343946787281996, -0.0004065957236515889, 620276000000.0]
[-0.06306861157646478, 0.029282830604931982, -0.00012867137723206795, 620281000000.0]
[-0.06404965508316132, -0.0041617215956974984, -0.0004847139280414088, 620286000000.0]
[-0.04451879621593817, 0.015022614221450434, -2.302336140465566e-06, 620291000000.0]
[-0.06385183398531968, 0.02322616289278539, 3.301079898360124e-05, 620296000000.0]
[-0.029769551111472666, 0.0006628258223033805, -4.981836846527246e-05, 620301000000.0]
[-0.05613794179269245, 0.019639429917294633, -4.1239720159556706e-05, 620306000000.0]
[-0.054528699262358114, 0.0448459552693433, -4.961707359447829e-05, 620311000000.0]
[-0.01796944614797789, 0.026974396076102365, -4.2989453150873614e-05, 620316000000.0]
[-0.05715181096420097, 0.008583215670483705, -0.00011574854360557898, 620321000000.0]
[-0.03314641664906772, -0.006930025900516083, -0.0001093526789620459, 620326000000.0]
[-0.04151784969917025, 0.005593669095204319, 0.00029001648631655396, 620331000000.0]
[-0.03832829623336855, 0.022931169237522833, -5.326469509545821e-05, 620336000000.0]
[-0.029824806454404513, 0.009497449478363283, -0.00028259009768860405, 620341000000.0]
[-0.02228263579398014, 0.0013018898306783756, -0.000388399953016769, 620346000000.0]
[-0.0717908491844182, 0.025085669551645998, -5.153395483193235e-05, 620351000000.0]
[-0.025538292768677886, -0.0015018610594149107, -3.630200141484627e-05, 620356000000.0]
[-0.049800694401506064, -0.014843669835999685, 0.0003286563236149434, 620361000000.0]
[-0.06427222766066304, -6.866059475889308e-05, -0.0003293483268921725, 620366000000.0]
[-0.05224382475386505, 0.017213472759378977, 3.178515816595686e-05, 620371000000.0]
[-0.062219461153391886, -0.0025137271388575144, -0.0002881760676083223, 620376000000.0]
[-0.028483104589558, 0.001946205116276101, -0.00014838855453137595, 620381000000.0]
[-0.07357763578396288, -0.0008738664025549747, 4.5776755936555624e-05, 620386000000.0]
[-0.06470591447068903, 0.026923079743350932, -0.0002245716022055753, 620391000000.0]
[-0.0460364456133748, -0.029361444381886155, 7.996381431552761e-05, 620396000000.0]
[-0.053538685011219715, 0.01973225541988453, -0.00030955734966139827, 620401000000.0]
[-0.0335365205517783, 0.023424915717550458, 6.364581333065001e-05, 620406000000.0]
[-0.04879720365040962, 0.03364691807974032, -0.0004024195015936673, 620411000000.0]
[-0.0809005562561944, 0.009142219734410205, -0.00019952087490353616, 620416000000.0]
[-0.029282322646809297, 0.001684734321402601, -0.00011835210587877716, 620421000000.0]
[-0.03181016321482601, 0.023235320290271963, -5.428025452124433e-06, 620426000000.0]
[-0.01817776457999499, -0.005692691231416497, -0.0002951224000483664, 620431000000.0]
[-0.03971063596300277, 0.0030410558425023456, 2.2322335873974325e-05, 620436000000.0]
[-0.03511162966758197, 0.0047806721830835315, -3.054488255049021e-05, 620441000000.0]
[-0.030256800648758242, 0.024193079605212667, -8.733580436142682e-05, 620446000000.0]
[-0.03635594528898413, 0.005140246752684631, -0.0003422348659861141, 620451000000.0]
[-0.02351233950592925, 0.0025274659089205027, -2.7961569605015402e-06, 620456000000.0]
[-0.03614956867025783, 0.017959818374570734, -6.63253931705817e-05, 620461000000.0]
[-0.032878589343727456, 0.037316049774334996, 7.406304863448672e-05, 620466000000.0]
[-0.060317202153205386, 0.002178612013372716, -0.00024242055755598155, 620471000000.0]
[-0.035686462050252714, -0.010232124430020117, 0.0001940476114666091, 620476000000.0]
[-0.04938586818658528, 0.03160022476080988, -0.0005134765900493675, 620481000000.0]
[-0.03758583630867708, -0.028109696978497786, -0.0002800060014044117, 620486000000.0]
[-0.053418901630736204, 0.03881374290829934, -9.254505257521212e-05, 620491000000.0]
[-0.049159511760802146, 0.017167455446776933, -3.2603969657296513e-05, 620496000000.0]
[-0.03958900567811607, -0.010986569262837611, -0.000268693970096961, 620501000000.0]
[-0.04597646915893837, -0.007542778485340726, 2.3710665945539844e-05, 620506000000.0]
[-0.030313504969787755, -0.021740621450338983, -2.4039462309366602e-05, 620511000000.0]
[-0.017496555977320135, 0.030693372086197004, -0.00041103361091299846, 620516000000.0]
[-0.045029488056564246, 0.005001371903061846, 0.00014942960028320923, 620521000000.0]
[-0.050246652663481134, -0.002585309149306292, -0.0003708004201049929, 620526000000.0]
[-0.03420557874920234, 0.034328310155504534, -1.7760612293343922e-05, 620531000000.0]
[-0.059265888910955425, 0.008975016327327279, -0.00041851316521991975, 620536000000.0]
[-0.04936198092193213, 0.016810468230502654, -0.00046924752795683786, 620541000000.0]
[-0.01249003353285259, 0.02424799758127479, 0.0001255692277967035, 620546000000.0]
[-0.04837614382898595, -0.008418934303300027, -5.702291345988656e-05, 620551000000.0]
[-0.03227548678755447, 0.04591182073547826, -7.825790093625909e-05, 620556000000.0]
[-0.08407020004297686, 0.021824791245505404, -0.00016793754463986405, 620562000000.0]
[-0.045172764405304745, -0.005607832062316951, -0.00019618725852051165, 620567000000.0]
[-0.035723130111432584, -0.023713865358189385, -0.00012918766088087152, 620572000000.0]
[-0.062138054986077135, 0.05733097681507927, -0.00010977883332814824, 620577000000.0]
[-0.0459435717077397, -0.002634064850183128, 0.0003679773268839028, 620582000000.0]
[-0.07476537374060901, -0.01773026190872723, -0.00018344712497296752, 620587000000.0]
[-0.018680092157184986, 0.0012565257078601833, 8.593431714874682e-06, 620592000000.0]
[-0.014716904951852315, 0.014686114265308286, -0.00017410626063308452, 620597000000.0]
[-0.025623296590597866, -0.0008122393157116879, -9.360410240498017e-06, 620602000000.0]
[-0.07108181033644194, -0.030781559851105256, -0.0001522379655686914, 620607000000.0]
[-0.05009153148511277, 0.0024389479913889747, -8.097439545564676e-05, 620612000000.0]
[-0.01644908809143202, 0.00849615442198192, -0.00011466475833667428, 620617000000.0]
[-0.04676720905220527, -0.006977849180546957, -0.0002749340686975163, 620622000000.0]
[-0.060033537136113035, 0.007453269660575993, -0.00027452659840973483, 620627000000.0]
[-0.06878838919611124, 0.02784570661378271, -0.0003842719308939554, 620632000000.0]
[-0.03529478248042756, -0.028369775578445618, -2.9143917655112436e-05, 620637000000.0]
[-0.052912059670414895, 0.0007766825456689396, 4.3340365480215294e-05, 620642000000.0]
[-0.048319223524132614, -0.01731608550710275, -0.0002600878080938969, 620647000000.0]
[-0.04660183514286906, 0.0001557279987968365, -0.00043089565310809195, 620652000000.0]
[-0.0627918130858456, 0.007657064854508377, -9.693946336486807e-05, 620657000000.0]
[-0.03365267184279117, -0.005779347157288616, -0.00042086878322982423, 620662000000.0]
[-0.062132434696415044, 0.023511102214898848, 0.0001880980886284186, 620667000000.0]
[-0.04552126882964879, -0.014656883547047448, -0.00010900626422087888, 620672000000.0]
[-0.011654562580989802, 0.02235472438270524, -7.363415697543771e-05, 620677000000.0]
[-0.054601937965981104, 0.010042070880276619, -0.0005097255115016681, 620682000000.0]
[-0.06808656792453058, -0.030267056626214348, -0.0002779229054427096, 620687000000.0]
[-0.07442053590167733, 0.03261204749080429, -7.07567177755162e-05, 620692000000.0]
[-0.03204918577146631, 0.0262110032823084, -0.00035770041385596406, 620697000000.0]
[-0.020313398903438196, 0.012998276869135392, 4.1652176955780324e-05, 620702000000.0]
[-0.033058955548295584, 0.042882307055347665, -0.0003201372586508123, 620707000000.0]
[-0.04985043386416452, 0.013365957361760918, -0.0003551055179173324, 620712000000.0]
[-0.044602049536210074, -0.003913250802819495, -0.00018142383742197036, 620717000000.0]
[-0.05925177006353748, -0.01236431020099529, -6.631620153436409e-05, 620722000000.0]
[-0.02694302523981088, -0.0065944735106354905, 1.8997295359872283e-05, 620727000000.0]
[-0.049864383657374105, -0.010350175767737757, -0.00046848479848390337, 620732000000.0]
[-0.03776071936679898, 0.012216341332978406, -8.520107525916737e-05, 620737000000.0]
[-0.03490336640762663, -0.00316368154525172, 0.00012062941579087086, 620742000000.0]
[-0.03649913924092189, 0.035647565427634864, -0.0002195216201617262, 620747000000.0]
[-0.05492858606002793, -0.0010584156396020537, -0.0002624214937291036, 620752000000.0]
[-0.013754187018335085, 0.004985653101617094, -0.00015185191099085634, 620757000000.0]
[-0.0399047100309437, -0.012791733876625968, 4.057703347058785e-05, 620762000000.0]
[-0.04562438464549401, -0.005732395143735979, 6.994314735736011e-05, 620767000000.0]
[-0.053705848295488245, 0.011472271937575088, -0.00034987700292164146, 620772000000.0]
[-0.028937540642146934, 0.007024187958508796, -0.00011208261873802978, 620777000000.0]
[-0.06372725365947371, 0.0037026117533663057, -0.0003882126279893376, 620782000000.0]
[-0.023037866195683297, 0.022011082908958795, 2.858609090942895e-05, 620787000000.0]
[-0.02749819044341189, -0.0038083385749718974, -0.00028124163225688845, 620792000000.0]
[-0.04668940287641931, -0.01046744972308901, -0.00034865710180626973, 620797000000.0]
[-0.039901081679280734, 0.006779928131589036, -0.0001933502923950451, 620802000000.0]
[-0.03254591768786995, 0.007461769035881977, 0.0002459683307121063, 620807000000.0]
[-0.018936216212060267, 0.011684227988173784, -0.0006787464516246406, 620812000000.0]
[-0.07154430918258636, 0.015503879071824893, -9.192524153349348e-06, 620817000000.0]
[-0.06158793034277096, 0.002557646709897641, 0.00016709521680158628, 620822000000.0]
[-0.053084397086777806, 0.023694167449468114, 0.00011268048274991159, 620827000000.0]
[-0.02585638408676352, -0.022594845449895234, -2.961128506831979e-05, 620832000000.0]
[-0.054284101027869035, 0.0006546507443651166, 0.0001815045985053709, 620837000000.0]
[-0.03189922473039131, -0.026083365221437643, -0.00024285339477103177, 620842000000.0]
[-0.05450169431513112, 0.01309423652737412, -0.00025651520824100893, 620847000000.0]
[-0.052929658554835154, 0.02004175424139422, -5.2676098931095055e-05, 620852000000.0]
[0.02323217580814553, -0.012087829156471436, -0.00015336018866179006, 620857000000.0]
[-0.12894637103233614, -0.008416995614943721, 6.339782269914869e-05, 620862000000.0]
[-0.02704007282422967, -0.01858748119129454, -3.172429943996276e-05, 620867000000.0]
[-0.024931028216955992, -0.02078519223959404, 0.0003756589535431152, 620872000000.0]
[-0.06073528610309762, 0.014735923038540997, 0.00018834961020261493, 620877000000.0]
[0.05933717308034036, -0.011401670142853464, 3.010004576613204e-05, 620882000000.0]
[-0.1281145569406967, 0.04068460869857167, 4.7695597168296823e-05, 620887000000.0]
[-0.0039624094044184086, -0.016957629018046386, 0.00012074755624449101, 620892000000.0]
[-0.11951964845552335, 0.03535824686773777, 0.0003849332757343676, 620897000000.0]
[-0.07599705039185611, 0.026219583388635625, -4.5400440409781146e-05, 620902000000.0]
[0.022048083845552423, -0.05278928714271665, 0.0002126887018882162, 620907000000.0]
[-0.1314951818791135, 0.019178869702654026, 0.0002312748013956998, 620912000000.0]
[0.03955236364536184, -0.020698560946595106, 5.434624944366558e-05, 620917000000.0]
[-0.042383867269454346, 0.002078267894012627, 0.00039946125970624397, 620922000000.0]
[-0.1448557937400854, 0.06000694799820086, 8.023585291691008e-05, 620927000000.0]
[0.006378093238796032, -0.022247005169349614, 7.836482636974864e-05, 620932000000.0]
[-0.04973745442678959, 0.0155136242680233, 0.0005978677654987931, 620937000000.0]
[-0.04131496691705648, 0.000967441028622139, 0.0004613268552235393, 620942000000.0]
[-0.10166386221637574, -0.01427080874308, -7.06744237764617e-05, 620947000000.0]
[-0.058850059904678356, -0.01003793219634742, 0.00019493562426447126, 620952000000.0]
[-0.08083032498788884, 0.007020448298337688, 0.0002896321062722539, 620957000000.0]
[-0.1460198133095017, 0.0339221332037127, 1.1859691882627318e-05, 620962000000.0]
[0.02425836327381789, -0.03713909396268414, 0.00019871932387943584, 620967000000.0]
[-0.04894202387275203, 0.025667612867246725, -0.00010996043474633917, 620972000000.0]
[-0.06711382601947771, 0.01575536701362833, 1.7553244079787143e-05, 620977000000.0]
[-0.0908423461547753, -0.0203977613117909, -2.2343378195436366e-05, 620982000000.0]
[-0.04499950011046863, 0.0329937627691009, 3.0392426816476927e-05, 620987000000.0]
[-0.06616471815502561, 0.001671734473317971, 0.00027819647269164036, 620992000000.0]
[-0.070804637657859, 0.00405328507594919, 0.00045976109498297205, 620997000000.0]
[-0.05459054808458344, -0.0007901896806593355, 0.00010766731940743577, 621002000000.0]
[-0.055797833963092285, 0.0022276341277404884, 6.907696072643425e-05, 621007000000.0]
[-0.03475751956675347, -0.0031420082197430484, -4.692780987696629e-05, 621012000000.0]
[-0.06306024214090562, 0.008531620217750897, -6.708770446024833e-05, 621017000000.0]
[-0.06287808180755806, 0.017002924183817467, -0.00025449448566774383, 621022000000.0]
[-0.082303162287958, -0.015406336481141526, -0.00016831044542983046, 621027000000.0]
[-0.05739628059220208, -0.0016548359401179977, -0.0002578369708954102, 621032000000.0]
[-0.08013645378950979, -0.03465647462497549, 3.278192165422735e-05, 621037000000.0]
[-0.10052163643059678, 0.007779830840416388, -0.0003063240734247001, 621042000000.0]
[-0.08307540215651016, 0.02312976353546576, -0.00019581116617347426, 621048000000.0]
[-0.14025908292783812, 0.02625959530523027, -1.2631295786096362e-05, 621053000000.0]
[0.030992589339869862, -0.04982828546428202, -0.0003320543883776843, 621058000000.0]
[-0.0611704311335662, 0.010304486917239158, 4.952074335215946e-05, 621063000000.0]
[-0.05039790194964574, -0.00945879240097728, -8.089114067459137e-05, 621068000000.0]
[-0.06916976751897981, 0.017114809368501696, -0.00021016922113645912, 621073000000.0]
[-0.04429631806582983, -0.0007281585136858885, -0.00015616568911784899, 621078000000.0]
[-0.15467340578066488, 0.011554657173452085, -0.00011998908528665706, 621083000000.0]
[-0.019465720654317554, -0.052768641541481254, -0.00029326404151556237, 621088000000.0]
[-0.07240495428033332, -0.05094076578473872, -0.00036227433611037965, 621093000000.0]
[-0.13273392163885428, 0.005546764954410879, -0.0005719997246281287, 621098000000.0]
[0.01693849012136425, -0.05255995282157995, -0.00013762591838118078, 621103000000.0]
[-0.051316063635658174, 0.002974966154172572, -8.925034206697937e-05, 621108000000.0]
[-0.1108090959924815, 0.0036276890602061664, -0.00023232875338036023, 621113000000.0]
[0.0021598783494508004, -0.03428949265654148, -0.00014275511701387366, 621118000000.0]
[-0.11799119457345796, 0.038757422571204764, -6.17472700365298e-05, 621123000000.0]
[0.028196335092715012, -0.040929984101567674, -0.00019175635122930954, 621128000000.0]
[-0.05815770150150786, -0.026918486671650806, -0.000265335844906833, 621133000000.0]
[-0.13995061280872834, 0.046232039391267216, -0.00022733252894198484, 621138000000.0]
[0.0013119887489061073, -0.024127943753056328, -0.0002017680861568034, 621143000000.0]
[-0.1073756469886644, -0.0037765292691954513, -8.012361205330592e-05, 621148000000.0]
[-0.049597029548473254, -0.00316010229648117, -0.00029145297461701387, 621153000000.0]
[0.05012796694287808, -0.048834222906503466, -0.0001927662570314027, 621158000000.0]
[-0.09546077936061237, 0.017139880880865616, -0.00018446177632288843, 621163000000.0]
[-0.08272551084561713, -0.023939205747282394, -0.0005429375169568082, 621168000000.0]
[0.006949836741420223, -0.03899158717097008, -0.0002997009734447188, 621173000000.0]
[-0.10523730884495996, -0.011861520037767807, -0.00014742686817658637, 621178000000.0]
[-0.05346115590717568, -0.01043631711757932, -0.00040703348186454604, 621183000000.0]
[-0.037008826719148485, -0.008023374106766054, -0.00035601772367363916, 621188000000.0]
[0.0005733653221956537, -0.025082099941817756, -0.0003558093224399387, 621193000000.0]
[-0.14503504468476786, -0.006702696805372527, 5.1145217365375915e-06, 621198000000.0]
[-0.032559632533088224, -0.05355112300137867, 2.9467613593875614e-05, 621203000000.0]
[-0.06137493143342336, 0.01140997821019345, -0.00043809702202092065, 621208000000.0]
[-0.054511446706465974, -0.008194893588891819, -0.0003029927405875709, 621213000000.0]
[-0.05951586262426441, -0.013839907033856371, -9.893174273636164e-05, 621218000000.0]
[-0.06333826356306917, 0.007927772914288849, -0.00032165858124580285, 621223000000.0]
[-0.016189578988384884, 0.0014508695351350591, -0.00042084007856606784, 621228000000.0]
[-0.08046466678521261, 0.017513851184062075, -0.00018373729521385998, 621233000000.0]
[-0.05047352293220093, 0.009587529345852948, -0.0001193876436170629, 621238000000.0]
[-0.04802762937872582, -0.0026689371196147163, -2.1147269629160788e-05, 621243000000.0]
[-0.05355327876997027, -0.029721827504825132, 8.836016908831234e-05, 621248000000.0]
[-0.04045284263807395, 0.001974675157399957, 0.00022370945652555195, 621253000000.0]
[-0.058069955834122965, 0.002295734389500096, -1.0721147661004092e-05, 621258000000.0]
[-0.054787438765590696, 0.0017955877409313445, -3.5243185559385336e-06, 621263000000.0]
[-0.03665126452460101, -0.02863411587324227, -0.00015227768576407528, 621268000000.0]
[-0.07928299999421178, -0.011834807659866602, 0.00033085246454376876, 621273000000.0]
[-0.06427917736855908, -0.005115312772888685, -0.0002348856862879876, 621278000000.0]
[-0.040746649177098374, -0.020819276895777918, -0.00019380812887588562, 621283000000.0]
[-0.06522210926794265, 0.006906088567983724, -0.00015073945740325757, 621288000000.0]
[-0.05468163392893692, 0.0017943431800565932, -0.0004196344459241616, 621293000000.0]
[-0.05585934312902203, -0.025104981441789544, -0.00011529442361455265, 621298000000.0]
[-0.03814536462860789, 0.037692714095898125, -0.00020663933829407385, 621303000000.0]
[-0.04309491411396707, -0.018150271126221952, -0.00016457260644023026, 621308000000.0]
[-0.05576704474429932, -0.026580712920958115, 6.888676685314963e-05, 621313000000.0]
[-0.04542011464762239, 0.005166050206198706, -0.00014463529606306588, 621318000000.0]
[-0.05141011824562167, -0.05399744129896918, -2.4466833064165535e-05, 621323000000.0]
[-0.060837307643571314, -0.019776149437018394, 0.00015527495474046746, 621328000000.0]
[-0.05111196146703692, -0.026246896215051572, -0.0002263694263557914, 621333000000.0]
[-0.05689785224289209, 0.0007855340773104506, -0.0005767598797659745, 621338000000.0]
[-0.03429091724431749, -0.024587986572966024, -0.0004092397691748326, 621343000000.0]
[-0.007368333067976414, 0.0028001449946242207, -9.519031304737153e-05, 621348000000.0]
[-0.06141078372838059, -0.017602084391201846, 0.000104932183984211, 621353000000.0]
[-0.059430186939252796, -0.013395036708818479, -0.0002709277506222667, 621358000000.0]
[-0.043934841690225025, -0.029135760471547034, -6.3915643492888316e-06, 621363000000.0]
[-0.04720748173004829, -0.030558041449054073, 0.00025401428351137594, 621368000000.0]
[-0.0662877059152996, -0.048974076186762715, 0.0005386640853315367, 621373000000.0]
[-0.018268019202502088, -0.02279192647661784, -0.00013817190404467623, 621378000000.0]
[-0.05300920986218982, 0.0012318382549678705, -0.0002201301111660708, 621383000000.0]
[-0.056713471378617965, -0.010414005059865046, -0.0005604700621863209, 621388000000.0]
[-0.024575255927232764, 0.0007398720854355414, 2.585230687991431e-06, 621393000000.0]
[-0.05750013279486496, 0.0025259372981999897, -0.0004206734077372631, 621398000000.0]
[-0.05069728290424094, -0.0024352527055444056, -0.0001309795232437426, 621403000000.0]
[-0.05404833883198374, -0.04482382283223235, -0.00011625350577661482, 621408000000.0]
[-0.006288704293721505, -0.022025796895114195, 0.00021386508718546193, 621413000000.0]
[-0.08247838718762587, -0.014954019036845557, 0.00021492851934172178, 621418000000.0]
[-0.043816360422171616, -0.03951971807379118, 1.311559642228508e-05, 621423000000.0]
[-0.05292100951729897, -0.01670556831597049, -0.0006022332535321911, 621428000000.0]
[-0.02927466487744586, -0.01650315113101542, 0.0001335162685213763, 621433000000.0]
[-0.05157073552455846, -0.01777715783056019, -0.0001628469366018187, 621438000000.0]
[-0.019043264579973098, -0.0197653716497821, -4.6402928289905834e-05, 621443000000.0]
[-0.024205131926676112, -0.01753534397767055, -0.0003123246795531723, 621448000000.0]
[-0.05829009811822915, -0.005467922304172348, -0.0003620505173043293, 621453000000.0]
[-0.07155047420189939, -0.03457069741022076, -0.00048702444091691254, 621458000000.0]
[-0.0422267897470844, -0.028427512973580003, -0.00034552260386208904, 621463000000.0]
[-0.05758555174253509, -0.01950361292867207, -0.00010901806184779099, 621468000000.0]
[-0.04825874928995162, -0.029159673832222746, 2.365399457619782e-06, 621473000000.0]
[-0.033228604489063396, -0.0014257787165130546, -9.679889784858898e-05, 621478000000.0]
[-0.028649258728695788, -0.010280087462588997, 1.4918930499028057e-05, 621483000000.0]
[-0.03136892889825724, 0.021135072359153163, -0.0001496093582477104, 621488000000.0]
[-0.07307107717292155, 0.01280161200777551, -0.0001981731283485469, 621493000000.0]
[-0.04311672943278246, -0.028572633698174983, -0.00037083887617074415, 621498000000.0]
[-0.07002446932726103, -0.04034765013699593, -0.00012056460352479705, 621503000000.0]
[-0.040758480253868454, -0.016179395131062167, -0.00020771351005833096, 621508000000.0]
[-0.045777667931479665, -0.024209831217857247, -0.00023048462871040902, 621513000000.0]
[-0.038029148435218346, -0.028866375416166785, 0.00020086903703902149, 621518000000.0]
[-0.04360083209833179, -0.019063592175877823, -0.0001750259365423816, 621523000000.0]
[-0.08863587351426391, 0.013065775767803925, -0.0002249637128730726, 621528000000.0]
[-0.07856367842538516, -0.041530748155021266, -0.00026366123987751455, 621533000000.0]
[-0.06257264771450054, 0.015541792443208451, -7.163056232741181e-05, 621538000000.0]
[-0.06626732628878616, -0.020857035902276118, -0.00015014340660815436, 621543000000.0]
[-0.09915148684771469, -0.0192269816716914, -8.754359691862573e-05, 621548000000.0]
[-0.02966984225560615, -0.001647365127904631, -0.00029752670432900115, 621553000000.0]
[-0.03819124711606853, -0.0370918354710573, -0.0001892072318326424, 621558000000.0]
[-0.07120599137739643, 0.000345812839068765, -0.00012832406254462318, 621563000000.0]
[-0.02915199304570179, 0.008433859189154732, 0.00024422291114609086, 621568000000.0]
[-0.047744959045744655, 0.020066536453796097, -0.00027490701768787234, 621573000000.0]
[-0.06999043094261442, 0.003161402306934716, -0.00017969699107009477, 621578000000.0]
[-0.04531499349606462, 0.013198240206564803, -0.0001483022870244879, 621583000000.0]
[-0.06872841423656735, 0.0031173595086038328, -0.0002228685679739307, 621588000000.0]
[-0.06979041946213164, -0.034045349339894615, -0.0003306364772001688, 621593000000.0]
[-0.04871477441229012, -0.008130627502481906, -0.0005003988491741336, 621598000000.0]
[-0.05704108427654429, 0.004887005851474417, 9.088095648578662e-05, 621603000000.0]
[-0.07022413924004023, -0.027511017305998454, -0.00018809848665776542, 621608000000.0]
[-0.06796528002280162, -0.06122614748706278, -0.00016918742250884375, 621613000000.0]
[-0.01619612550952151, -0.02432791150908277, 0.00016812205895461773, 621618000000.0]
[-0.11031239901002175, 0.02325463334912268, 0.00011509162596891326, 621623000000.0]
[-0.031196063831715633, 0.003469978931683059, -0.00034335461166931544, 621628000000.0]
[-0.006427401402171279, -0.029703765009195846, -1.8840559629254995e-05, 621633000000.0]
[-0.0991976077831285, 0.044070165651944083, 0.000262722706450403, 621638000000.0]
[-0.055649109415904806, -0.032997773675550776, 0.00018691827747570723, 621643000000.0]
[0.022766364935505122, -0.035853864773039916, 5.50471042074839e-05, 621648000000.0]
[-0.13245089925165449, -0.00616649025638677, 0.00021011069199366368, 621653000000.0]
[-0.004492966584658694, -0.029609879791473226, 0.0001931007437626643, 621658000000.0]
[-0.11785676217654491, -0.016634400193676745, 7.810281440927695e-05, 621663000000.0]
[-0.06371207157168429, 0.008530301774125273, 6.692329535256192e-05, 621668000000.0]
[0.011237786309198356, -0.025221465165348754, 0.00010134802446942309, 621673000000.0]
[-0.13212420814173947, 0.017403815388281712, 0.00012435991820321232, 621678000000.0]
[-0.008994844959674625, -0.03663991119730713, 0.0002872762417901667, 621683000000.0]
[-0.02716299960501841, -0.02022558503142465, -3.6689159118645872e-06, 621688000000.0]
[-0.12914661863924312, -0.004512287719114581, -0.00019606820459140201, 621693000000.0]
[0.023347829268559512, -0.07031163834348741, 0.0001355066720556294, 621698000000.0]
[-0.06932296735878946, -0.019814330953902545, 0.00016127770990182448, 621703000000.0]
[-0.10325116319905762, 0.018244451478130988, 8.272711016989176e-05, 621708000000.0]
[0.017586911466954753, -0.03958024434043801, -0.00015788105297559756, 621713000000.0]
[-0.10465215083164363, 0.01715563978687978, -4.273987363127229e-05, 621718000000.0]
[0.01038813501101665, -0.0754562827001186, -0.0002684611191616147, 621723000000.0]
[-0.09019895678295996, 0.0003630933276192634, -2.0478471728309155e-05, 621728000000.0]
[-0.1490472893711662, 0.024132179475440645, 0.0001607516254607809, 621733000000.0]
[5.611433659762706e-05, -0.05550135088753033, -7.995812982586414e-05, 621738000000.0]
