acc_x, acc_y, angular_z, stamp, 
-0.06558128912085097, -0.009790917741798908, -0.00021651306662576243, 17467000000.0
-0.07244343848699167, -0.03075510662918508, 0.00027003103808172376, 17472000000.0
-0.026613609769855405, 0.001049979127933459, 0.00019371386646675184, 17477000000.0
-0.061440234117823775, -0.025694948558449837, 2.6121989420747972e-05, 17482000000.0
-0.059573705379440414, -0.005488083106594013, -0.0003327387048758998, 17487000000.0
-0.0663404058541716, 0.00365950103692147, 6.765897515667001e-05, 17492000000.0
-0.059910796625031314, -0.023877629391272703, 0.0004315055198626465, 17497000000.0
-0.06058745321014941, 0.012242131693066054, -1.626921267112489e-05, 17502000000.0
-0.07337004938489178, -0.0035473012251306564, -0.00030617919250218976, 17507000000.0
-0.04610486863590041, -0.011984086086509593, -0.0004132386524367031, 17512000000.0
-0.11253645028673676, -0.029473336488267936, -0.00025484971822265304, 17517000000.0
-0.02800429820839379, 0.004169169220154425, 0.0004584733710823391, 17522000000.0
-0.03427953916745394, -0.019658814382945575, -0.00027936209472080185, 17527000000.0
-0.034816736092250784, -0.010650128983257902, -0.00016387485817589013, 17532000000.0
-0.07261038258124669, -0.011720063722625232, 0.00010461827991371473, 17537000000.0
-0.02953840354008325, -0.014967060792140226, 0.00014132024161776237, 17542000000.0
6.754318616744738, 0.04909303066054801, 6.71582899992912e-05, 17547000000.0
-0.12014732057287104, 0.005779961214601663, 0.0008282592699248751, 17552000000.0
-0.16167006576691406, -0.014093645694053587, 0.0012534632002416518, 17557000000.0
-0.08072304173893331, -0.0032595137278865166, 0.0026525867954062276, 17562000000.0
-0.04552237730515994, -0.023425128853511647, 0.003256817185199842, 17567000000.0
0.08849029503989844, -0.01654352457124105, 0.0044045569729236145, 17572000000.0
-0.2464677855727898, 0.037870222011625404, 0.005561859698572757, 17577000000.0
6.996744305996298, -0.010729284233944161, 0.00656432892349436, 17582000000.0
-0.15225733746301365, 0.0292879011997231, 0.0070385150701943846, 17587000000.0
-0.003903139933516337, -0.022533418434639952, 0.007683026378406399, 17592000000.0
-0.1855301182425408, 0.02951428118604713, 0.008063653780345221, 17597000000.0
-0.080146111483692, 0.00908866263979198, 0.008288412859618859, 17602000000.0
-0.056750717695024884, 0.01149614510647764, 0.007855359091060098, 17607000000.0
-0.05604744011861727, 0.01475365036382084, 0.007787890020689623, 17612000000.0
6.920567001653041, -0.030133075196231544, 0.007426793588040213, 17617000000.0
-0.13993554818359027, 0.011665164657335018, 0.006654381130626276, 17622000000.0
-0.040640684140730424, -0.027193305255119843, 0.006440533656916869, 17627000000.0
-0.050234203529311336, 0.02117863280008539, 0.005572342819172414, 17632000000.0
-0.03518303822119534, 0.007863474249433735, 0.005492009579461729, 17637000000.0
-0.04368067671556208, -0.051225014055727006, 0.00431564711262754, 17642000000.0
5.662182478237466, -0.009747148451805767, 0.004016737586323752, 17647000000.0
1.1902322128383405, 0.025635065936102326, 0.0036719930444406223, 17652000000.0
-0.12398584866159809, -0.004301818941184202, 0.0033115746933836164, 17657000000.0
-0.07879605328021275, 0.028928481836536298, 0.0030691364860389704, 17662000000.0
-0.06342713100641356, -0.0010675354840609043, 0.0035360585166790705, 17667000000.0
-0.08045294601027156, -0.016072396511931077, 0.0034829176145048917, 17672000000.0
-0.04297672287285235, -0.006738078353447091, 0.003735370694315583, 17677000000.0
6.75715960331481, -0.005845471827684806, 0.004084832064892968, 17682000000.0
0.049983412335815464, -0.016862598499217823, 0.00447414691786238, 17687000000.0
-0.110851120430738, 0.0018527413175603367, 0.004435855712847011, 17692000000.0
-0.08821417491335104, 0.009883378505144907, 0.004819522841686182, 17697000000.0
-0.03524896655028302, -0.006254907940243934, 0.005352273974381019, 17702000000.0
-0.03809885152636916, -0.010189343821158967, 0.005464745190487999, 17707000000.0
-0.04648158987072583, 0.016977196560153684, 0.0062638810457182744, 17712000000.0
6.928763323423945, 0.00964229522558991, 0.006177490882328061, 17717000000.0
-0.11765629303326613, 0.011009644369667239, 0.006177267435682399, 17722000000.0
-0.08932862865286628, 0.0177353784180707, 0.006273065300564958, 17727000000.0
-0.12057535413493739, -0.007395908310219362, 0.006066823131149999, 17732000000.0
-0.061919176733374465, -0.03254019371748428, 0.006069899450156781, 17737000000.0
-0.0666772337383505, 0.0008080749318393641, 0.00532819619208543, 17742000000.0
-0.07865813461594479, 0.006479726930478339, 0.0055395998396311945, 17747000000.0
6.919028506178426, -0.040247199156544525, 0.005119444942094403, 17752000000.0
-0.17473210289769678, 0.006387236337244477, 0.0053708228340884874, 17757000000.0
-0.08835789416826621, -0.006177616474821686, 0.00467187868323333, 17762000000.0
-0.05025877060390398, 0.01634946571586244, 0.004933185457166524, 17767000000.0
-0.02963910563622357, -0.01584933052845357, 0.00474086949295037, 17772000000.0
-0.07621767938653676, 0.012631516730368782, 0.00432422533940587, 17777000000.0
-0.043106759203381986, -0.005051223172799953, 0.004382156335224525, 17782000000.0
5.7335464195671975, -0.005910781271015999, 0.0048055278624425145, 17787000000.0
-0.13830532605992255, 0.0022772548991012507, 0.004478482949837269, 17792000000.0
-0.07340821802792954, 0.012138908120536241, 0.004582694975890689, 17797000000.0
-0.07083914577098312, -0.005358302878766915, 0.004670494722972415, 17802000000.0
-0.0287810542480001, 0.0030619673918968063, 0.005077386630981294, 17807000000.0
-0.07438991916372684, 0.030538736364526652, 0.00500813726077613, 17812000000.0
-0.04570211098037942, -0.0003691604426991706, 0.005089820958415383, 17817000000.0
5.709702687702264, 0.028029165098639595, 0.0051128698469610975, 17822000000.0
-0.12578004962850678, -0.001752689469160731, 0.0051619076768893, 17827000000.0
-0.06893440590009607, 0.02231838209449744, 0.00542598860219209, 17832000000.0
-0.03857715747970317, -0.014525096379192508, 0.005812719381929563, 17837000000.0
-0.0701188146903339, -0.02950699020024041, 0.005120086470713754, 17842000000.0
-0.030166500613235985, 0.0072775129371911666, 0.005530501934092562, 17847000000.0
6.737595996370758, 0.05313651573445266, 0.005613861035511793, 17852000000.0
0.08842859713998323, 0.0138363503695717, 0.00532780286603473, 17857000000.0
-0.10920376602136132, 0.012820433602166916, 0.005352338267720832, 17862000000.0
-0.0429944253817073, 0.010728454708981934, 0.005178838602426995, 17867000000.0
-0.04419056821927731, 0.004859385929169389, 0.005492725824423829, 17872000000.0
-0.03665327342539952, 0.010617917243729385, 0.004987717978043492, 17877000000.0
-0.05835790852473717, -0.007331877896802526, 0.0052195302515786815, 17882000000.0
5.784150460981825, 0.011872153653547407, 0.005085949950388442, 17887000000.0
-0.15256408975053332, 0.014489824294497513, 0.005014128170777348, 17892000000.0
-0.08795698448846127, -0.001534902168215213, 0.0047869659670983465, 17897000000.0
-0.0526541315662529, -0.022704248679097046, 0.004654382120903192, 17902000000.0
-0.03801296844560698, 0.010185653108600052, 0.004922626015474008, 17907000000.0
-0.02363631879226947, 0.012753115108489485, 0.005073057223594774, 17912000000.0
-0.008464490629339488, 0.015938746624441374, 0.004736813920401195, 17917000000.0
6.970552961678658, -0.001596479189263954, 0.00503491705529993, 17922000000.0
-0.14507335689755096, 0.01781565317230612, 0.004976040201655918, 17927000000.0
-0.06113287289384526, 0.012089301875872741, 0.005459133184961507, 17932000000.0
-0.05308733164900334, 0.017972487912978327, 0.00531963441198842, 17937000000.0
-0.0147758023683756, 0.007865378386956605, 0.004990319515550913, 17942000000.0
-0.01425831286149521, 0.03241480991601011, 0.005120377601270308, 17947000000.0
-0.018724936080596645, -0.0037633607079528954, 0.00537319806334144, 17952000000.0
6.946982357433131, 0.012227356596894294, 0.005076083230798492, 17957000000.0
-0.12029212992183669, 0.025356252838486693, 0.005510073933485613, 17962000000.0
-0.04300300497169995, 0.026943592462833035, 0.004963357897269093, 17967000000.0
-0.011607855912160575, 0.03478360094327775, 0.005311959467587229, 17972000000.0
-0.023703814089002035, 0.0076483665769665945, 0.00489926948103857, 17977000000.0
-0.0033467524033663192, -0.0047251702589765215, 0.00505898629721268, 17982000000.0
5.68146323623862, 0.011284036154574672, 0.005038236017389937, 17987000000.0
1.2299946920554563, -0.011559769379273822, 0.005119977980566917, 17992000000.0
-0.10198163729578505, 0.010778894690149577, 0.004948626673569583, 17997000000.0
0.004967037861743871, 0.0025778114977069986, 0.0047306427079327655, 18002000000.0
-0.020224157785199957, 0.04895100584714713, 0.004849309743926576, 18007000000.0
-0.0017147338983585104, 0.023960612149729117, 0.004971657699736315, 18012000000.0
-0.004824681492981649, -0.002823567002358906, 0.005244142608770387, 18017000000.0
6.802018046654829, 0.007908751206448818, 0.005462291631937843, 18022000000.0
0.0964418795788919, 0.009830508750656344, 0.004667416914296402, 18027000000.0
-0.0760299983550513, 0.010321170852435474, 0.004937983632541147, 18032000000.0
-0.035307620711936015, 0.018129736016231336, 0.005147192063074358, 18037000000.0
0.024769685504603466, -0.021678864678240817, 0.005070143807845749, 18042000000.0
-0.022804710560999825, -0.00909486566767062, 0.0048957337539669455, 18047000000.0
0.018957801399035645, 0.015094331598682736, 0.005395583606322735, 18052000000.0
6.992506758447879, 0.0054279649969321015, 0.0048859937037984535, 18057000000.0
-0.09205326251059738, 0.004148977644767888, 0.0053000459161342845, 18062000000.0
-0.02510317861317531, 0.020678080309021248, 0.005303857621273476, 18067000000.0
-0.0028980920034155123, -0.01691833599204664, 0.005016789605937115, 18072000000.0
0.01203469916978321, 0.00399434812249585, 0.005383547896505332, 18077000000.0
0.011907697003714727, 0.011362225707053617, 0.005261383772233168, 18082000000.0
-0.01921840750195946, -0.0004907077999826745, 0.005073216670116605, 18087000000.0
6.983174814291618, -0.017858822102704376, 0.005308538022051532, 18092000000.0
-0.11714375989137453, 0.00052934053163423, 0.004654527096792286, 18097000000.0
-0.031467040197407536, 0.015753846404552206, 0.005450972131629396, 18102000000.0
-0.006548923106199124, 0.02583082316542687, 0.005255643890694181, 18107000000.0
0.013030042964003487, 0.005080110315831254, 0.005135353013172199, 18112000000.0
0.06452555711645327, 0.0018351037386764042, 0.005218663281810424, 18117000000.0
0.014653901250057562, 0.016457648591927207, 0.004864287182727808, 18122000000.0
6.97658861615979, 0.020779955556130422, 0.005464525103442853, 18127000000.0
-0.061455411380619565, -0.005939911414824711, 0.005248421065359788, 18132000000.0
0.015110053955643403, -0.0022826336778247005, 0.004813434017957147, 18137000000.0
0.013335919388184353, -0.002400140680404318, 0.004911093565794439, 18142000000.0
0.03127663048255713, -0.025855836888145925, 0.005455197479988191, 18147000000.0
0.015174718504177282, -0.01861250458927309, 0.005393413147166851, 18152000000.0
5.715484252147331, -0.0099128321787408, 0.005380755480516453, 18157000000.0
1.273101400270057, 0.023199293353165167, 0.005024958068397403, 18162000000.0
-0.036928106182097166, -0.01928401948778401, 0.005025837870995492, 18167000000.0
0.005175422557682166, -0.005337176170541442, 0.005143292767402917, 18172000000.0
0.017485687786634903, 0.013835244656432235, 0.004747361619194241, 18177000000.0
0.041579790431567995, -0.017046347395652642, 0.005765744543574531, 18182000000.0
0.024746229412324114, 0.003259862557799532, 0.0053229001230038365, 18187000000.0
6.8093170218390835, -0.013107582510513423, 0.005071845002607323, 18192000000.0
0.13729881763709423, 0.020440768061280867, 0.005272845652035671, 18197000000.0
-0.03722360844536171, -0.010983013713943064, 0.005246822568981551, 18202000000.0
0.05093356714565724, 0.012689687097542635, 0.004993464540560223, 18207000000.0
0.05305234398496473, 0.0023125411778730995, 0.005012803655278789, 18212000000.0
0.01221523098588699, 0.01921849361055475, 0.004795098950762839, 18217000000.0
0.046153101944043706, -0.0054346986382537744, 0.005171668885013786, 18222000000.0
7.007909834056024, 0.03457351586321077, 0.005109788330789865, 18227000000.0
-0.05949449304450073, 0.0005637639959345011, 0.00527531834056445, 18232000000.0
0.002348871366897817, -0.03893525702499537, 0.005364816503915089, 18237000000.0
0.06267066821717493, -0.0356718514933261, 0.004604458954220816, 18242000000.0
0.05121339681205944, 0.0010718256838372314, 0.004852961796912919, 18247000000.0
0.031557238524101694, -0.0306583562693905, 0.005268278064700188, 18252000000.0
0.06045309784296706, -0.024231451935878893, 0.00503679187206372, 18257000000.0
7.063112297199107, -0.003185774683471498, 0.005269330193445217, 18262000000.0
-0.04717441183035645, 0.00031404595915688005, 0.00490971095623278, 18267000000.0
-0.0022998884569336124, 0.01028252120253543, 0.0052168910212294604, 18272000000.0
0.041091398756986884, -0.022703899385065625, 0.005099472781471395, 18277000000.0
0.07511361693566641, 0.013241213799835491, 0.004984747161232502, 18282000000.0
0.07515535822392477, -9.314799348525437e-05, 0.005044619458870812, 18287000000.0
0.0712225254183542, 0.0028756449233911384, 0.004873458870650731, 18292000000.0
7.0648359708946495, -0.0009831043676254666, 0.005124986947422022, 18297000000.0
-0.016406147301162095, 0.01085673600125443, 0.0054141039938213715, 18302000000.0
0.0712351239964473, -0.012673951762949935, 0.00496644439563912, 18307000000.0
0.054341956106678774, 0.0017802294202054916, 0.005331461744612274, 18312000000.0
0.09880326018441263, 0.005488126535799127, 0.005114184065414885, 18317000000.0
0.1170389331450545, -0.03836261610047351, 0.005233018531992299, 18322000000.0
5.7952202685406204, 0.007601121024650513, 0.005217339576122736, 18327000000.0
1.336262472555874, -0.008492788396047338, 0.005097110976399875, 18332000000.0
0.053171551508473525, 0.007270891963189571, 0.0052732431101747464, 18337000000.0
0.08803942037168007, -0.011426771060467366, 0.0053185158326139, 18342000000.0
0.10805333613425228, 0.03969848403731343, 0.005368899587158189, 18347000000.0
0.1372816732652201, -0.02936950597752997, 0.005179593729246998, 18352000000.0
0.10537364881403734, -0.0021068399477048353, 0.00555344932010652, 18357000000.0
6.906824884067604, 0.01078521369452377, 0.005365388308809948, 18362000000.0
0.24142301475590525, -0.0004068896627404152, 0.005287813444859714, 18367000000.0
0.06081574280316252, 0.019774392138036022, 0.005377082602843361, 18372000000.0
0.11155687769017338, 0.005204326348974864, 0.005130277093294129, 18377000000.0
0.13353851313787227, -0.021252142270531953, 0.005488836383898662, 18382000000.0
0.112928220322393, -0.007323702597424384, 0.005107454616177241, 18387000000.0
0.1467895895441911, -0.023216577918253614, 0.005070728944654162, 18392000000.0
7.088571127336005, 0.025647951414703097, 0.005117796646302848, 18397000000.0
0.023806684598183765, 0.03637979121305022, 0.005274663367561821, 18402000000.0
0.10694806526896225, 0.0014311018328953496, 0.00519335341236251, 18407000000.0
0.14277028382473844, -0.03674971728660315, 0.005350170882551215, 18412000000.0
0.09681894290961263, 0.02059169547871257, 0.0051327258698077955, 18417000000.0
0.14154680026268152, 0.014331940167909105, 0.005201318510558652, 18422000000.0
0.17111796078452154, -0.011920706223239031, 0.005365245294888733, 18427000000.0
7.106898927108722, 0.03429320876432782, 0.005169452272770859, 18432000000.0
0.01793020470358219, 0.0011003762275043115, 0.005043254529450323, 18437000000.0
0.11614734007845806, -0.007646493285870987, 0.005386550944995208, 18442000000.0
0.1466488020686192, 0.004684799028063597, 0.0057207684005514455, 18447000000.0
0.1716280752283263, 0.02587012799506243, 0.0054253700511170625, 18452000000.0
0.1666723686588399, 0.0016998248299401513, 0.005591664968808075, 18457000000.0
0.1534116809542646, 0.02941592779439578, 0.005040919619286056, 18462000000.0
7.090480143768386, -0.0005372572892687233, 0.0052545011612701135, 18467000000.0
0.06488157508226806, -0.02007049104880175, 0.005210394231012177, 18472000000.0
0.12630891544920717, -0.00942159692911464, 0.004723615254164014, 18477000000.0
0.17224977515741086, -0.0023927931076117414, 0.0053179332739987885, 18482000000.0
0.14893815005971078, -0.03291639159131296, 0.005549353808655468, 18487000000.0
0.1725903033821756, 0.0054513768554496946, 0.005580256031495432, 18492000000.0
5.7685481622837464, 0.008280100138523296, 0.0050449675073617065, 18497000000.0
1.3711197116184706, -0.011078892546789397, 0.0049528309464374936, 18502000000.0
0.09063775942178424, -0.022936182119672542, 0.0042925609656136125, 18507000000.0
0.17978642980139103, -0.021736845338976747, 0.0030363246365701546, 18512000000.0
0.208110804435396, 0.005528208462701179, 0.0022326112861187027, 18517000000.0
0.1647403972158629, -0.006766044527415872, 0.001200327295860646, 18522000000.0
0.19504579159037655, -0.02484046483905375, 0.00024001696408441748, 18527000000.0
3.081908947058741, -0.00397581181412255, -0.006403605855735089, 18532000000.0
0.23014833856523653, -0.019594661939962323, -0.028356821759623962, 18537000000.0
0.16897325934992508, -0.0449799064656136, -0.05952907812391409, 18542000000.0
0.1984846215529923, -0.05571168689430856, -0.09634681970086964, 18547000000.0
0.2054815856124185, -0.09527477669583184, -0.13574212638931532, 18552000000.0
0.22377209053633917, -0.18736294480549517, -0.1756659011201644, 18557000000.0
0.21188664088929351, -0.17291392248930404, -0.21376918048526417, 18562000000.0
0.22984804718914353, -0.2497428687607374, -0.24655180402050694, 18567000000.0
0.20509025131734115, -0.31138554678894714, -0.2733911019114268, 18572000000.0
0.20296493435324162, -0.2904192970986853, -0.292417836906151, 18577000000.0
0.21330765018742187, -0.3224868407482069, -0.30276990511848767, 18582000000.0
0.23838601901057255, -0.3133137492710964, -0.30529875621461, 18587000000.0
0.2100117416536618, -0.31662291529393644, -0.3002373402274085, 18592000000.0
0.1813570801934173, -0.33763486452167063, -0.2881987384113189, 18597000000.0
0.23204186690768186, -0.3104511155793641, -0.27175462772060194, 18602000000.0
0.23191164806710463, -0.28882637812922407, -0.2506378108425742, 18607000000.0
0.21148126833877093, -0.25463312017519696, -0.22709901835324928, 18612000000.0
0.18676253130772924, -0.21537648130892967, -0.2030929823796463, 18617000000.0
0.20479576899642737, -0.19011969962784642, -0.1804775414134963, 18622000000.0
0.2282202055381985, -0.18260746663181873, -0.16064576433077704, 18627000000.0
0.19857597867380355, -0.13798399654763885, -0.14367165840164275, 18632000000.0
0.2746575731020513, -0.16273489147860812, -0.1322141321571568, 18637000000.0
0.24756020082367416, -0.1400405849280043, -0.12591792237185467, 18642000000.0
0.2029880521036832, -0.14872544442029917, -0.1247306608293331, 18647000000.0
0.25144921863612973, -0.13607375920435985, -0.12844242094946454, 18652000000.0
0.2328468537746993, -0.16542061341176462, -0.1365929067389509, 18657000000.0
0.23780073403251728, -0.17135086722282705, -0.14813766109835158, 18662000000.0
0.22071445379615057, -0.16544667208145683, -0.16180595847258286, 18667000000.0
0.2340422600589104, -0.21108113393355635, -0.1770286862671315, 18672000000.0
0.2517354432270965, -0.18692296276409476, -0.19215057805522803, 18677000000.0
0.23595116244180572, -0.26224234476664743, -0.20703383305585651, 18682000000.0
0.2614158409051432, -0.21330270049314706, -0.21967694093022047, 18687000000.0
0.2293084689243716, -0.24840560881361076, -0.23012909688261973, 18692000000.0
0.2631271706957886, -0.24899354936051832, -0.23800330992168944, 18697000000.0
0.2778939376336337, -0.26558965661861267, -0.24215616556008548, 18702000000.0
0.25422671751991793, -0.25445063859132183, -0.243482986657882, 18707000000.0
0.2469831690955859, -0.2881807336623043, -0.24224141325765042, 18712000000.0
0.2622289413458961, -0.28620565421626154, -0.23809114988845934, 18717000000.0
0.24513580295231366, -0.2401857378968827, -0.23170209742847322, 18722000000.0
0.25641390936081215, -0.25108057826385416, -0.2237362520952316, 18727000000.0
0.281870240155107, -0.2558548700330011, -0.21525977020779105, 18732000000.0
0.2500384668036884, -0.23095359318760053, -0.20588344042405593, 18737000000.0
0.23017584208016184, -0.2085670015867234, -0.19894446325810447, 18742000000.0
0.24258647872603467, -0.20370732759876353, -0.19263902227014199, 18747000000.0
0.2606049920844915, -0.1537637032115935, -0.1874792144367392, 18752000000.0
0.24077325196232147, -0.19397641267165683, -0.18492019098539353, 18757000000.0
0.24058795874847944, -0.2106764425314566, -0.18349369095755072, 18762000000.0
0.26589861027296985, -0.2168957368031515, -0.18415151579964525, 18767000000.0
0.2661450233527083, -0.20182475275199968, -0.186521225354434, 18772000000.0
0.279682204637099, -0.19063123751123973, -0.1898131693936871, 18777000000.0
0.29853732644680264, -0.21947516166106798, -0.1942713299967772, 18782000000.0
0.2900213065135855, -0.20084999804981363, -0.19911414957361298, 18787000000.0
0.26246820424395895, -0.255808650653179, -0.20456593294819708, 18792000000.0
0.26484271563205397, -0.2304322354867765, -0.20957582853101495, 18797000000.0
0.26193955588390894, -0.23368871558502607, -0.21466233548450203, 18802000000.0
0.2779031428227882, -0.24638357595032798, -0.21843095435714716, 18807000000.0
0.27799129524073435, -0.2506042455355052, -0.22120449741125314, 18812000000.0
0.28190117773458456, -0.2845797222002777, -0.22359434931798933, 18817000000.0
0.23648960866032623, -0.2298622033995251, -0.22475022763276348, 18822000000.0
0.275476720009316, -0.2428884586783499, -0.2246272510303907, 18827000000.0
0.29351586539955804, -0.25312736948793624, -0.2232594745881955, 18832000000.0
0.2587533745096974, -0.23783005096827659, -0.22170921080272102, 18837000000.0
0.2727976277682643, -0.23437869949050028, -0.22034903954533575, 18842000000.0
0.3031534280080691, -0.25060758058226495, -0.2190660570615121, 18847000000.0
0.28833877302516897, -0.2166114846970997, -0.21759929867388764, 18852000000.0
0.27458811493511814, -0.23470820808406426, -0.2166854589867169, 18857000000.0
0.26159891376165856, -0.24965816919737932, -0.21575753570435996, 18862000000.0
0.2629469880980248, -0.20861926773728784, -0.21485630369074693, 18867000000.0
0.26070686002992655, -0.248858973167387, -0.21501659227700062, 18872000000.0
0.3023616701380972, -0.23903131094678756, -0.21486517595536705, 18877000000.0
0.2936151537759353, -0.23993202370220507, -0.21529581444973028, 18882000000.0
0.26648922285019566, -0.25346409925273844, -0.21556448381480697, 18887000000.0
0.2782264578670785, -0.22733607562073768, -0.21631739399131675, 18892000000.0
0.26527265441733977, -0.25351577764310346, -0.2171511784312676, 18897000000.0
0.25933501283913485, -0.21199786331215686, -0.2182891858376165, 18902000000.0
0.23373589565795375, -0.2342273628610841, -0.21875103708573773, 18907000000.0
0.25414869198514206, -0.21349382643015963, -0.21985666288639744, 18912000000.0
0.28025823277674344, -0.257599145127296, -0.2206488024491656, 18917000000.0
0.29524744088629323, -0.21713685913046524, -0.22163378529337877, 18922000000.0
0.30172638024292603, -0.24954086208674855, -0.2218251600117395, 18927000000.0
0.3040545367129508, -0.23170989484209384, -0.2220173870904052, 18932000000.0
0.27183382182664945, -0.23668877377140204, -0.22161133412221698, 18937000000.0
0.2611969315308323, -0.2382653980034507, -0.22257938450686898, 18942000000.0
0.2766396008398716, -0.2364953740941153, -0.2235117568036754, 18947000000.0
0.272473959504339, -0.2629894264145694, -0.22461362242383123, 18952000000.0
0.26936375581911803, -0.2601271278284343, -0.22637108246868337, 18957000000.0
0.2694111447154501, -0.31046319011390805, -0.22803383743592462, 18962000000.0
0.529941781888549, -0.37047787748497574, -0.2307865812086259, 18967000000.0
0.5313324348634316, -0.3402893932774318, -0.2343811319594007, 18972000000.0
0.37987244273345944, -0.27193691162691824, -0.23834969642767423, 18977000000.0
0.2902366182414461, -0.2566982810760714, -0.24218698374233133, 18982000000.0
0.297473518802643, -0.24869856928725054, -0.24648817239561333, 18987000000.0
0.28943393521381344, -0.278259781408291, -0.24948116151813923, 18992000000.0
0.303999992608128, -0.27043877060894084, -0.25289667581514214, 18997000000.0
0.32351790009603937, -0.2706001441217394, -0.2550073023773186, 19002000000.0
0.3120338341539635, -0.29966873094960095, -0.256684252398726, 19007000000.0
0.27948121744077453, -0.24385731189168575, -0.25774067228422604, 19012000000.0
0.3071230648367983, -0.2496450509384462, -0.25828415044239206, 19017000000.0
0.06091691330376054, 0.060032427429282796, -0.25847167210209815, 19022000000.0
-0.052791775107943, -0.2672289684298566, -0.2611244143971331, 19027000000.0
0.025066294672198543, -0.2282067752391107, -0.26506386131544996, 19032000000.0
0.25246841471672743, -0.3220815540577099, -0.27075918189830517, 19037000000.0
0.2030436393398096, -0.32012399188372165, -0.27821337653569767, 19042000000.0
0.1469138221776077, -0.2888487408296868, -0.2873641436575473, 19047000000.0
0.28357481167580634, -0.3190104122185281, -0.2968816726171098, 19052000000.0
0.11892209945616142, -0.11730435282649233, -0.30669982151410163, 19057000000.0
0.3021979707829434, -0.2906225318213602, -0.31695578887342324, 19062000000.0
0.1636959861419799, -0.2141999679652126, -0.3273482877276554, 19067000000.0
0.2809455869291612, -0.3333696852259002, -0.3372240814235197, 19072000000.0
0.2568572032260925, -0.38219521235509896, -0.3482395597689273, 19077000000.0
0.2807016580361104, -0.35774653411799323, -0.35519504429132326, 19082000000.0
0.25161774258291275, -0.38758305033100393, -0.36330323729131486, 19087000000.0
0.2418747373898607, -0.39227371620872686, -0.37056195142804293, 19092000000.0
0.21806234929564908, -0.36897645319837463, -0.3774062969299473, 19097000000.0
0.22881934047401956, -0.33987930139834444, -0.3837821172063872, 19102000000.0
0.1984671213318362, -0.3934109742764944, -0.38932241701648646, 19107000000.0
0.22372498168224664, -0.3718519138857368, -0.3940694266011422, 19112000000.0
0.18187400411538307, -0.38781023074325516, -0.39823453520571883, 19117000000.0
0.3189707945134525, -0.5606386067855073, -0.40098571892192636, 19122000000.0
0.3376147554604289, -0.568404042100249, -0.4026728799033096, 19127000000.0
0.3662775553824075, -0.5841211446275072, -0.40308073038653064, 19132000000.0
0.17373444608434768, -0.34768079848297934, -0.4027255307769419, 19137000000.0
0.32743846192169324, -0.5768751262107307, -0.4002802678450055, 19142000000.0
0.431106694465085, -0.516025038742324, -0.3976572781856327, 19147000000.0
0.6604104045548712, -0.5227891505235356, -0.3923239277541744, 19152000000.0
0.5674861748820675, -0.3218418038553035, -0.3851029680012206, 19157000000.0
0.22865707772684346, -0.5189692111210602, -0.3756124456557847, 19162000000.0
0.43725826485236113, -0.33886426678900256, -0.3638584059819313, 19167000000.0
0.7867898226328404, -0.5089954336665792, -0.3507779570315432, 19172000000.0
0.8086930888390539, -0.19159101840954884, -0.3334022212719678, 19177000000.0
0.4821626278126723, -0.2965590551458348, -0.3140068756120952, 19182000000.0
0.41785348463755456, -0.278489988950333, -0.2939506939294184, 19187000000.0
0.2888340847902418, -0.27920407893334814, -0.2736486441245711, 19192000000.0
0.2190522756196469, -0.2597391333479899, -0.25469819368953783, 19197000000.0
0.15661107850765502, -0.24140473195302864, -0.23832596030067732, 19202000000.0
0.1504535181062453, -0.21798628710266169, -0.22452301304788203, 19207000000.0
0.031153578638736107, -0.2101542562539182, -0.215305495227197, 19212000000.0
-0.00678997862468279, -0.2273330735387029, -0.2110600632168682, 19217000000.0
0.003580153585683891, -0.22222963195439663, -0.2114568293855619, 19222000000.0
-0.09606175589930488, -0.1513274480197259, -0.21517944663872027, 19227000000.0
-0.09678660439011813, 0.0648024635702122, -0.22210828026686807, 19232000000.0
0.1189080401672521, -0.1354646307228822, -0.23136436259964507, 19237000000.0
0.20216911354689882, -0.21146109477075156, -0.2416520283081508, 19242000000.0
0.22802991640921808, -0.2542761891879823, -0.25148300074043006, 19247000000.0
0.23919252501008867, -0.2994620558703715, -0.26186877859673935, 19252000000.0
0.25633849416998006, -0.2709938479000344, -0.2707579249184668, 19257000000.0
0.26491436005555546, -0.2975922817753352, -0.2782322783409609, 19262000000.0
0.261697795151627, -0.29257635693617207, -0.2842892741317347, 19267000000.0
0.2638057623281504, -0.2738200047698432, -0.2879725987812534, 19272000000.0
0.25382529948746946, -0.2855388460638277, -0.28987333291495626, 19277000000.0
0.23772174088495376, -0.27941264955272593, -0.2887213726477283, 19282000000.0
0.24065898848236095, -0.2889194618436889, -0.28683274180268026, 19287000000.0
0.2534441201858984, -0.26854019667671997, -0.2829905578665865, 19292000000.0
0.22852330211183103, -0.27590735386257675, -0.27794640655683284, 19297000000.0
0.27694155340483984, -0.2595907062885937, -0.27190668236247184, 19302000000.0
0.2235635378429135, -0.2592254988336231, -0.2657211893222103, 19307000000.0
0.22139043402730121, -0.2654737451374936, -0.2601761605046504, 19312000000.0
0.23410479101513723, -0.28077362321482846, -0.25475839042023035, 19317000000.0
0.18675355163713867, -0.257759333191233, -0.2517036445268218, 19322000000.0
0.22528606087468933, -0.2669190240774758, -0.24994691339308897, 19327000000.0
0.21013917279167252, -0.22383391269355946, -0.24928138740608963, 19332000000.0
0.2269065244915937, -0.2660247404249687, -0.25045255269166483, 19337000000.0
0.25329787843703766, -0.2806152518016943, -0.2523018421182204, 19342000000.0
0.23570915948143117, -0.25250639805401087, -0.2553086528628573, 19347000000.0
0.18559850857297308, -0.23913108096987354, -0.25899297337790966, 19352000000.0
0.20962631594138034, -0.2820158885909975, -0.26314333095323905, 19357000000.0
0.21398392416288733, -0.2729822782776798, -0.2674982548152228, 19362000000.0
0.20454919780727518, -0.2979518918864877, -0.27114201302936614, 19367000000.0
0.23121586936118851, -0.30577793475242265, -0.27507047267393686, 19372000000.0
0.19613960059635788, -0.31021797938342033, -0.2778755715239522, 19377000000.0
0.19720969051614087, -0.2801944262809335, -0.2799784094198272, 19382000000.0
0.23681048383291786, -0.3075307738747076, -0.28146261887946517, 19387000000.0
0.22948751502294065, -0.29139972780449824, -0.28153093182131234, 19392000000.0
0.2377863543090043, -0.2961124739325325, -0.281379383690485, 19397000000.0
0.23805582500782835, -0.2882622149347509, -0.2799101029236774, 19402000000.0
0.2561118487106212, -0.31578201807362855, -0.2781885800190055, 19407000000.0
0.19527314937449422, -0.27124708583970736, -0.27608604667989445, 19412000000.0
0.2036750385100358, -0.25850031845970417, -0.2743222339948337, 19417000000.0
0.21134375505796704, -0.2739482059713891, -0.27322234875511475, 19422000000.0
0.19295432877168622, -0.2825936156682609, -0.2724778328405343, 19427000000.0
0.17120605678449474, -0.29685542103274604, -0.2724902830589456, 19432000000.0
0.1892712950785324, -0.25712039443872886, -0.27266553317150033, 19437000000.0
0.2187744749448802, -0.2972325408770378, -0.2732378608011451, 19442000000.0
0.23250967193951944, -0.25701937969280375, -0.2746014921229706, 19447000000.0
0.17998445699371513, -0.2703466323132777, -0.27563250298822006, 19452000000.0
0.19655152102961398, -0.2864445172518436, -0.2775400503756729, 19457000000.0
0.18099534301553596, -0.28013860409948765, -0.27923030104467866, 19462000000.0
0.2010265728590749, -0.29891645173683407, -0.28027403118506006, 19467000000.0
0.1980181093131527, -0.30393067951480157, -0.2816385425452491, 19472000000.0
0.1628005070787709, -0.26945462161050937, -0.2825601906454465, 19477000000.0
0.20300772552245405, -0.29017998450855603, -0.28347484613921603, 19482000000.0
0.20835623156236877, -0.32329508275426516, -0.2838642198159585, 19487000000.0
0.17260776414163945, -0.2809851388838995, -0.2838524805000589, 19492000000.0
0.17518494482341762, -0.3131195566975081, -0.2840658971659323, 19497000000.0
0.18647477394000658, -0.32276176789761135, -0.28356253428493594, 19502000000.0
0.21330588140576062, -0.31115397231491265, -0.2827747548979869, 19507000000.0
0.18225842049659355, -0.31189465100364877, -0.2819543834407474, 19512000000.0
0.19971291813877054, -0.31160383625930477, -0.2814315464082561, 19517000000.0
0.20009573738390732, -0.2875390638121254, -0.28124901072363073, 19522000000.0
0.15882832245194145, -0.296437983847397, -0.2817751574865741, 19527000000.0
0.18657173644649971, -0.32976417625928994, -0.28315395843698143, 19532000000.0
0.17385971359909347, -0.3094992150778075, -0.28443515761082755, 19537000000.0
0.178228036046607, -0.2717414131087115, -0.28634696384602154, 19542000000.0
0.15960214921744256, -0.338628437203076, -0.2877765155651921, 19547000000.0
0.18023302031041294, -0.3199609099404218, -0.28990581635671553, 19552000000.0
0.1669371168489993, -0.30422492407902535, -0.29113696448664206, 19557000000.0
0.16029950787437536, -0.3057975382175322, -0.29266289205613966, 19562000000.0
0.17580520906448266, -0.3282562715890026, -0.29394477122059853, 19567000000.0
0.1924857064267024, -0.31993874828690017, -0.29433630144233136, 19572000000.0
0.19105466450653838, -0.28764163581633034, -0.2949018317730926, 19577000000.0
0.17414471318376862, -0.3380537378092303, -0.29464286471155915, 19582000000.0
0.16304444645473745, -0.3071226374492048, -0.2940134535549751, 19587000000.0
0.1423809794916545, -0.3212789202893235, -0.29376321387941123, 19592000000.0
0.1474529659085744, -0.33076628606683967, -0.29300696294328793, 19597000000.0
0.1372290375690441, -0.3024762100467351, -0.29172021834905193, 19602000000.0
0.1366368354061245, -0.31025327006728626, -0.29059826260135596, 19607000000.0
0.1702464503905375, -0.3089197479389179, -0.2896336889138908, 19612000000.0
0.16651518310241994, -0.3247943223183809, -0.28862634294229167, 19617000000.0
0.13742448075056937, -0.31569657706713816, -0.2886979368090694, 19622000000.0
0.15127200898407184, -0.32139695459900736, -0.288999544981676, 19627000000.0
0.11313856086337207, -0.3179034782281993, -0.29048864502829636, 19632000000.0
0.13771364617728152, -0.31479338749410685, -0.2923879233658773, 19637000000.0
0.14836107525327735, -0.3038260205657741, -0.29418247162162425, 19642000000.0
0.13228829132410783, -0.30959851894488866, -0.296732421779765, 19647000000.0
0.14961816762227942, -0.33081895364591396, -0.29904915594171577, 19652000000.0
0.14200757476506487, -0.32988445610428035, -0.3010758512625335, 19657000000.0
0.1308826146610128, -0.3224940364226278, -0.30326984851980654, 19662000000.0
0.12707879896777977, -0.34198517871727274, -0.3044381603478136, 19667000000.0
0.15102411013857459, -0.34809930418827295, -0.30555986234964977, 19672000000.0
0.13497261743855532, -0.3283328649642939, -0.3062363803089668, 19677000000.0
0.1397446025571843, -0.36251679840162926, -0.30655688346680166, 19682000000.0
0.14835969218468165, -0.36662950054311966, -0.30564173663319333, 19687000000.0
0.14301161627023612, -0.3841743212811711, -0.3053956725534027, 19692000000.0
0.11074116889030661, -0.35161685237834667, -0.30446731850780323, 19697000000.0
0.13968308616548147, -0.3318543982799508, -0.3029430871682676, 19702000000.0
0.1372476426959329, -0.35636027373435253, -0.3014141480828736, 19707000000.0
0.14223277280410568, -0.3377286431724355, -0.3001404650208462, 19712000000.0
0.10611695080336375, -0.34046159026287615, -0.29914010392558116, 19717000000.0
0.11226450412987751, -0.3471880665744503, -0.29783668793871443, 19722000000.0
0.1018107170687673, -0.3274822366311717, -0.2987443460789778, 19727000000.0
0.09895933341466534, -0.33408755052933786, -0.29883090428608544, 19732000000.0
0.0918885281589524, -0.3619721850839015, -0.30076753607674633, 19737000000.0
0.10486153759732844, -0.35997364518797464, -0.30234452140570256, 19742000000.0
0.12666314841968904, -0.34725502039669887, -0.30500667121944774, 19747000000.0
0.09604766154833055, -0.34701668665042334, -0.3074053256337075, 19752000000.0
0.11444048400794911, -0.3266011907905712, -0.30952806362020835, 19757000000.0
0.09683412625541897, -0.32958783517440754, -0.3119222345434246, 19762000000.0
0.09768519270657983, -0.3603565544687223, -0.3139332706224818, 19767000000.0
0.1085651678739261, -0.38600174331489084, -0.3148584715386087, 19772000000.0
0.09527393486587679, -0.3534549471252429, -0.316035605965257, 19777000000.0
0.09377852103966307, -0.33051909743467367, -0.31663907144064796, 19782000000.0
0.10684003581271007, -0.3559490892046626, -0.31666754946115355, 19787000000.0
0.1145063774764222, -0.3757352501404202, -0.3158727447757407, 19792000000.0
0.09121605494298923, -0.3409856139793416, -0.3151715276383206, 19797000000.0
0.07309147514210515, -0.3740885735033428, -0.3139934604934674, 19802000000.0
0.08185670010039568, -0.36135913825858806, -0.313030673936364, 19807000000.0
0.1104202761229317, -0.3655941305491975, -0.31144030800723876, 19812000000.0
0.10354433721260875, -0.35028893099757297, -0.30966293914401827, 19817000000.0
0.05120490730117682, -0.3411776239509937, -0.3086319903761268, 19822000000.0
0.08821091075927633, -0.33995667221361986, -0.3086277774280229, 19827000000.0
0.09226041076676879, -0.3716633047458, -0.30889693652360484, 19832000000.0
0.07986937156605098, -0.34347307231026875, -0.30985501072911625, 19837000000.0
0.10342181683148272, -0.3794606870140282, -0.31169693598430703, 19842000000.0
0.10796430369569182, -0.376319248129894, -0.31341566680534794, 19847000000.0
0.0683911676012467, -0.37333122834937815, -0.31621869588058515, 19852000000.0
0.0669048697878317, -0.3527415890891035, -0.3183060588515852, 19857000000.0
0.07175279770334947, -0.3877357473415406, -0.32015903221381525, 19862000000.0
0.11301849898998564, -0.34108560062179216, -0.32266811693000386, 19867000000.0
0.08117740461600553, -0.3974899999087657, -0.3238400600330833, 19872000000.0
0.1048516374688448, -0.37465852874099015, -0.32513098633955956, 19877000000.0
0.08297041005491805, -0.39008727389352976, -0.3258061563413124, 19882000000.0
0.06053769694498745, -0.3969078958084237, -0.32685498739741614, 19887000000.0
0.07285111341635071, -0.40108671541533214, -0.3260178667061264, 19892000000.0
0.05502696758369529, -0.3528381624205383, -0.3254555156222183, 19897000000.0
0.05875693850074957, -0.38239038345858634, -0.32452162758933595, 19902000000.0
0.06869018809662826, -0.3853311572486398, -0.3234046002472616, 19907000000.0
0.09653393018774126, -0.371301239997025, -0.3218240860359141, 19912000000.0
0.07312059572818853, -0.347838646575912, -0.3204322119111153, 19917000000.0
0.024585304543639025, -0.383655911598328, -0.31937068331128354, 19922000000.0
0.05605943936698128, -0.3882236701805869, -0.3186337756114226, 19927000000.0
0.07815123306945385, -0.3724937123916485, -0.31850763075066946, 19932000000.0
0.04718974896790476, -0.3917789127419623, -0.3200394501292163, 19937000000.0
0.06863403556772431, -0.3539699283128113, -0.32071102591730455, 19942000000.0
0.06601609857713686, -0.33464196813683966, -0.3227046473221599, 19947000000.0
0.04218293609420201, -0.39168893247985304, -0.32543805116658464, 19952000000.0
0.056882257597419404, -0.3902696889334347, -0.32732485184322996, 19957000000.0
0.04904094144620378, -0.3835217837022191, -0.3292521649727652, 19962000000.0
0.07396022965981361, -0.356826059170234, -0.33124492992842774, 19967000000.0
0.07441782650630425, -0.4009040408601383, -0.33334540292444625, 19972000000.0
0.047567634966316746, -0.3734606401229794, -0.33453579613223067, 19977000000.0
0.06835210848573431, -0.37985890728035654, -0.3355878679382295, 19982000000.0
0.042360887067220285, -0.3697387988566406, -0.33594038585989555, 19987000000.0
0.06778669975081197, -0.3781537991849452, -0.3355707352852658, 19992000000.0
0.10273285090347672, -0.3983308090369331, -0.33493425651577874, 19997000000.0
-0.042972357963465005, -0.4406940697606487, -0.33504341272266114, 20002000000.0
-0.01195171312081427, -0.6099503694379431, -0.3351721385758466, 20007000000.0
-0.016919464320830625, -0.498952605015771, -0.33674440818706675, 20012000000.0
0.014029415790495835, -0.37289590643125836, -0.3391115587462628, 20017000000.0
-0.0014903912984995, -0.3946799115724677, -0.3419108106300369, 20022000000.0
0.015025349997510016, -0.3730360872459254, -0.34552186878772256, 20027000000.0
0.0005815465278575013, -0.400360189980458, -0.34985760378615954, 20032000000.0
0.02666251533760221, -0.41729532539062403, -0.35487957837014344, 20037000000.0
0.00018580763869139802, -0.4030800869648146, -0.3605168212204696, 20042000000.0
0.04707412863676208, -0.4133652900324908, -0.3657950089834172, 20048000000.0
0.04991291509484959, -0.3823453358065723, -0.36981347999057157, 20053000000.0
0.06971803489428736, -0.4288679339740584, -0.37310947298957803, 20058000000.0
0.07315977396826319, -0.4421990142552087, -0.37571422427452217, 20063000000.0
0.06909557800166599, -0.43904719198910025, -0.3775685633898564, 20068000000.0
0.06448364822741108, -0.42740632427972214, -0.37870933205960866, 20073000000.0
0.06664506319326444, -0.454575927070716, -0.3777911663817973, 20078000000.0
0.0698064486867822, -0.4209953202894796, -0.37664969431471834, 20083000000.0
0.0670243076339894, -0.42243681171224323, -0.3747725459530997, 20088000000.0
0.0683904972974638, -0.4392241899390686, -0.37250698408258154, 20093000000.0
0.0007223715443657325, -0.4331313605162027, -0.3698577670727876, 20098000000.0
0.016489163384398507, -0.44997674084553374, -0.36706642891482627, 20103000000.0
0.012893419595442929, -0.4245253897411832, -0.3641536664542195, 20108000000.0
-0.01266329658041, -0.41529422962112955, -0.36125926737755737, 20113000000.0
-0.0017131620210098768, -0.4228901246570597, -0.3593259554107362, 20118000000.0
-0.028864089301853683, -0.4143206999783001, -0.35709540674545615, 20123000000.0
-0.0644197286124141, -0.3997286688131731, -0.35640626028354755, 20128000000.0
0.10459134591611657, -0.10825099547495769, -0.35574412494418367, 20133000000.0
0.05053633542561091, -0.21811536642203805, -0.35541269099518885, 20138000000.0
-0.0020225571899683565, -0.2828119486208603, -0.35546418606351105, 20143000000.0
-0.02991465131899013, -0.461888885121839, -0.35547027111169205, 20148000000.0
0.029998735894514187, -0.5314206659012811, -0.35503429111068446, 20153000000.0
-0.02956321057139332, -0.4616862930423516, -0.3543475175846793, 20158000000.0
-0.04154742233095139, -0.41772916572601415, -0.3534452657505298, 20163000000.0
-0.02585780707831541, -0.43877238519851813, -0.35259052262168866, 20168000000.0
-0.023376332429238186, -0.4311901414406312, -0.35183906926850966, 20173000000.0
-0.017668387078187537, -0.43203208230670437, -0.3508315724543937, 20178000000.0
-0.015399228692626301, -0.4086968561147686, -0.3503949843780606, 20183000000.0
-0.03938162423004146, -0.38993278093911654, -0.349619372741766, 20188000000.0
-0.04466832400637705, -0.39565098253752723, -0.3491902878789821, 20193000000.0
-0.040419340491675004, -0.40559370801331485, -0.3484902343230497, 20198000000.0
0.007394557334083514, -0.38009034712085443, -0.349168274028505, 20203000000.0
-0.03090770127726411, -0.4175470651011046, -0.3495245006382693, 20208000000.0
-0.018983150250845383, -0.42590167537439766, -0.3492321512179604, 20213000000.0
-0.03307595324388393, -0.4163509126823848, -0.3497982218603286, 20218000000.0
-0.047660667554743616, -0.3982317052047106, -0.34984350653441587, 20223000000.0
-0.020868881859738442, -0.4365582207362534, -0.35010766959009404, 20228000000.0
-0.0418279055438397, -0.42250453438186714, -0.3502156315118809, 20233000000.0
-0.04651078244228395, -0.4348152770881291, -0.3503243081091709, 20238000000.0
-0.04099713456512952, -0.41362662785231447, -0.3510319097449341, 20243000000.0
-0.04871795127903971, -0.393777074614959, -0.35053667899237956, 20248000000.0
0.05046871207885175, -0.4126934506868408, -0.3517229896931449, 20253000000.0
-0.06487383225494084, -0.4223233134141933, -0.352682668534171, 20258000000.0
-0.1770390770317706, -0.4838147124424919, -0.35420193179283616, 20263000000.0
0.015328220263496199, -0.3829532285320914, -0.3553214406349742, 20268000000.0
-0.03997300941558033, -0.40159671106314954, -0.3581113839127693, 20273000000.0
-0.0455171443207355, -0.41771497975488564, -0.3601391291451772, 20278000000.0
-0.04343150468293504, -0.4377911807389937, -0.3621011263495266, 20283000000.0
-0.06676002120595072, -0.43843188922137094, -0.36390380626220564, 20288000000.0
-0.06216751531404163, -0.42256957746206, -0.3649402617054544, 20293000000.0
-0.045625980684031314, -0.4496798857329283, -0.36588387825992846, 20298000000.0
-0.16889705194383692, -0.3747354860090212, -0.36733110437234573, 20303000000.0
-0.219955980791114, -0.47052510545832393, -0.37014405236436926, 20308000000.0
-0.12850194851377933, -0.4682201216124777, -0.3739285349015824, 20313000000.0
-0.20138809518443246, -0.44614461535124544, -0.3784283411174438, 20318000000.0
-0.1620166290360721, -0.4889265966484424, -0.3835729395005305, 20323000000.0
-0.13346287812728835, -0.44553556425907725, -0.3894381599813557, 20328000000.0
-0.0884624918027506, -0.4862934444587764, -0.3947313223324425, 20333000000.0
-0.09088864794937321, -0.4895738931863303, -0.3999584328343897, 20338000000.0
-0.06234956482100226, -0.4975398306643858, -0.4048583150911684, 20343000000.0
-0.05800612853406676, -0.47510548060610946, -0.4083336766836371, 20348000000.0
-0.056355333794603196, -0.4610102708981171, -0.4109948952916859, 20353000000.0
-0.05067934396259081, -0.4915350718258086, -0.41219821875800994, 20358000000.0
-0.026794793042179906, -0.45952052026528456, -0.41228099180315464, 20363000000.0
-0.029647342064294476, -0.487844476386965, -0.4116389418057225, 20368000000.0
-0.043824588270116566, -0.4913354985308728, -0.4093243124797784, 20373000000.0
-0.07656564629381847, -0.4976606139299215, -0.4073331751391143, 20378000000.0
-0.049954503091735755, -0.4366044850040945, -0.4048522465560841, 20383000000.0
-0.08916201372461609, -0.5021328268470306, -0.4013707015916163, 20388000000.0
-0.10653539947309235, -0.4650216130260008, -0.3979833610174974, 20393000000.0
-0.14539521605135883, -0.43010242333957494, -0.395224739641426, 20398000000.0
-0.14467867613830643, -0.4808028933953847, -0.39286185923718914, 20403000000.0
-0.15243275717807797, -0.4392908256270292, -0.3912852097869018, 20408000000.0
-0.16551088884690196, -0.4847139869983229, -0.3919916939280096, 20413000000.0
-0.17512264470736064, -0.48200452947957506, -0.39274939520422036, 20418000000.0
-0.15903168931831033, -0.46662665103248396, -0.394540102851462, 20423000000.0
-0.14673118624163753, -0.4669774372785952, -0.3966246164796948, 20428000000.0
-0.1294515507696918, -0.45760968864767576, -0.39979798817281853, 20433000000.0
-0.12778565569748518, -0.4567473408843205, -0.40283536097043304, 20438000000.0
-0.1524226211054831, -0.4907061948519457, -0.40563796283626335, 20443000000.0
-0.1266083762460197, -0.46950070085690365, -0.4088795693529676, 20448000000.0
-0.08873623724129401, -0.4889994226791651, -0.41119730140997096, 20453000000.0
-0.09891807270667552, -0.48833548226538764, -0.41320316726507467, 20458000000.0
-0.14569041292373414, -0.48036501823046185, -0.4144873576998357, 20463000000.0
-0.11980792922007036, -0.4893640700294658, -0.4151690328283456, 20468000000.0
-0.10935801700824518, -0.5009398491361038, -0.4151960536887774, 20473000000.0
-0.0992413594820035, -0.478882653888589, -0.41552692159871824, 20478000000.0
-0.10115671993950068, -0.498644465027486, -0.4141214846522598, 20483000000.0
-0.11511465213505964, -0.5101091675108284, -0.41302092053487416, 20488000000.0
-0.15340804693611293, -0.48465975330827454, -0.4114057539310722, 20493000000.0
-0.14545121166741776, -0.4594668352880845, -0.40976386675383875, 20498000000.0
-0.09822852323302682, -0.49047367354679317, -0.40821141063257377, 20503000000.0
-0.1416911065028505, -0.4619807377809548, -0.4074800471120583, 20508000000.0
-0.14955957235186723, -0.46189250014806793, -0.4075596449993846, 20513000000.0
-0.16101760145454294, -0.4597868505841238, -0.4085194439891276, 20518000000.0
-0.17687934217092494, -0.4540201138259678, -0.4093285316390046, 20523000000.0
-0.18072659225104898, -0.48376864957803756, -0.41110153839839264, 20528000000.0
-0.13887377474985205, -0.4696277290498175, -0.4132063472881893, 20533000000.0
-0.16498402249393826, -0.4448620997735679, -0.4150446628481072, 20538000000.0
-0.14282518423126203, -0.4738661813991987, -0.41740292301789966, 20543000000.0
-0.1318378005888202, -0.4689933267370251, -0.4197298710681957, 20548000000.0
-0.13967978764609482, -0.46332386902151845, -0.4207591165642109, 20553000000.0
-0.11567759407334513, -0.5050576753893659, -0.4219992110117509, 20558000000.0
-0.11203481829629443, -0.5054393944942253, -0.42295135078269963, 20563000000.0
-0.1403184666774569, -0.510033900990715, -0.422938913681951, 20568000000.0
-0.13119637486218744, -0.4640335080367271, -0.42320280386115783, 20573000000.0
-0.11398618329671181, -0.4873314664552751, -0.42311113263438554, 20578000000.0
-0.14484713750472059, -0.48678968672823997, -0.42272073681261446, 20583000000.0
-0.13714027149651398, -0.502604527730435, -0.4212384042308497, 20588000000.0
-0.1683568503653175, -0.49366151024566507, -0.42041647446800445, 20593000000.0
-0.14602101411593998, -0.4889931959390352, -0.41871635868605517, 20598000000.0
-0.16674321564056727, -0.44129117198056816, -0.41806234897427147, 20603000000.0
-0.18789509423020362, -0.49291937785613127, -0.4178472972111304, 20608000000.0
-0.21481563832045233, -0.48979627824301375, -0.41801887386978387, 20613000000.0
-0.1796148660144551, -0.5079947237280198, -0.4188133300865626, 20618000000.0
-0.18766939243581207, -0.5091633083114143, -0.42058939747178903, 20623000000.0
-0.1649098147460104, -0.4712001898520811, -0.4224359406612627, 20628000000.0
-0.14429891140174494, -0.5257987653559619, -0.42414431044678924, 20633000000.0
-0.16894213944544675, -0.5024951996471287, -0.42662756361375925, 20638000000.0
-0.17407092080150005, -0.5103451029858149, -0.42859168731888486, 20643000000.0
-0.1347886179205043, -0.504117663419195, -0.4301581695085998, 20648000000.0
-0.13809211547652178, -0.47240926429177255, -0.43272259738252083, 20653000000.0
-0.10479307816143513, -0.510989937635833, -0.4331847108862924, 20658000000.0
-0.13564667326672494, -0.4995974706866962, -0.4341610753467082, 20663000000.0
-0.13758020629599185, -0.5127319966112595, -0.4346544199487682, 20668000000.0
-0.11818659979659751, -0.5270183807425173, -0.43399429183769317, 20673000000.0
-0.16421838210265471, -0.4757071417367662, -0.43362002229076374, 20678000000.0
-0.16541790888377153, -0.5237157545561771, -0.4331059729019076, 20683000000.0
-0.15570634643949813, -0.48176286522338085, -0.4319332240701754, 20688000000.0
-0.12030908664968065, -0.5200009317491804, -0.43075096511162053, 20693000000.0
-0.17741143795632053, -0.5024325285265305, -0.42927092506861, 20698000000.0
-0.15388886461163326, -0.4908619414057749, -0.42826695411078247, 20703000000.0
-0.14498946511268612, -0.504722812345548, -0.4274857078141282, 20708000000.0
-0.205663847387837, -0.47838522233865194, -0.42740663867805184, 20713000000.0
-0.20618016930642813, -0.48762742268081, -0.42817684214888524, 20718000000.0
-0.1923775143784255, -0.4738629318954254, -0.42990240596686113, 20723000000.0
-0.18796256524045288, -0.4867283915501628, -0.43143498445100537, 20728000000.0
-0.186037963296366, -0.5164798610555514, -0.43391422433529414, 20733000000.0
-0.1759474264943888, -0.5294201720003151, -0.43613136063113633, 20738000000.0
-0.15917198402803287, -0.5306261700885462, -0.4379569775794408, 20743000000.0
-0.1653004392350776, -0.5022037380223888, -0.4403725143758503, 20748000000.0
-0.14923733662170816, -0.5039144245329469, -0.44228441454436046, 20753000000.0
-0.1456456968259244, -0.5052186706915874, -0.4440108828770432, 20758000000.0
-0.15968693433546027, -0.5035183238691379, -0.4446719623921581, 20763000000.0
-0.17473031605244016, -0.5151515458107683, -0.445394678690681, 20768000000.0
-0.1429072850874454, -0.48698828416340634, -0.44556958460670637, 20773000000.0
-0.1254409299231833, -0.5261721743612202, -0.44536344948570294, 20778000000.0
-0.15679168735277604, -0.5235667914727954, -0.44456589317708056, 20783000000.0
-0.13520516790967416, -0.5050446782048685, -0.44339272558076986, 20788000000.0
-0.13980062946595592, -0.5371679519793349, -0.44198811530171717, 20793000000.0
-0.1529984587045816, -0.502963630333394, -0.4408057268224908, 20798000000.0
-0.15217930554616615, -0.4932899321512676, -0.439544044152986, 20803000000.0
-0.15462762635940866, -0.5058888951389349, -0.43883036718130963, 20808000000.0
-0.19268125385559742, -0.5165124473575156, -0.4380257077539364, 20813000000.0
-0.19564989517181786, -0.5076984324800219, -0.43868164993614966, 20818000000.0
-0.17085573581187014, -0.4816021197336176, -0.43985592522131234, 20823000000.0
-0.16752617495950708, -0.4947014606873674, -0.4410425049860695, 20828000000.0
-0.16788223699308777, -0.5116619324285668, -0.4432987552221509, 20833000000.0
-0.2060306385881875, -0.5149945734354235, -0.44556597835861206, 20838000000.0
-0.18573934050788043, -0.5454862192596668, -0.44801930031936593, 20843000000.0
-0.1692388132005933, -0.5633621082480047, -0.45023135757456023, 20848000000.0
-0.14104134662823264, -0.5434653278662378, -0.45200620057649593, 20853000000.0
-0.13739034892207455, -0.5195021089993691, -0.4541024868337829, 20858000000.0
-0.1533828667961467, -0.5325295450622644, -0.4550017711983712, 20863000000.0
-0.13034080268925227, -0.5347530827423763, -0.4553128714424699, 20868000000.0
-0.14655990344573955, -0.4949217383389195, -0.4560121405835099, 20873000000.0
-0.10995993555062804, -0.5301244062114818, -0.45626209979559806, 20878000000.0
-0.06563451476750383, -0.5340624858741935, -0.45559321264910235, 20883000000.0
-0.10272292565763005, -0.5456052346287094, -0.4545559729130726, 20888000000.0
-0.12089737657427535, -0.5086086981510475, -0.4540275264091621, 20893000000.0
-0.1170485884997059, -0.4976556832458613, -0.4524377000176057, 20898000000.0
-0.15067580018355384, -0.5259799208879805, -0.45118415086149044, 20903000000.0
-0.12972110039537754, -0.5307628740101693, -0.4498628065836232, 20908000000.0
-0.12732649345212288, -0.5161893691874493, -0.4488541182911881, 20913000000.0
-0.20833060683036875, -0.5267022235240021, -0.4490707939652913, 20918000000.0
-0.19064785217346938, -0.5114873038549791, -0.44983889256055687, 20923000000.0
-0.16464457047844308, -0.5374595736223925, -0.4516763764229108, 20928000000.0
-0.13707502650682388, -0.5292356555143404, -0.45329433372364886, 20933000000.0
-0.1167946372243592, -0.522188161397714, -0.4549979298733303, 20938000000.0
-0.14385024468794894, -0.5070062851737412, -0.4571011209697347, 20943000000.0
-0.16278668988227996, -0.5201787493548494, -0.4591589394705283, 20948000000.0
-0.12796918801265642, -0.5411876751522335, -0.4609809149678951, 20953000000.0
-0.1409858361864628, -0.5642785749886594, -0.46255939219812414, 20958000000.0
-0.09364111887517607, -0.5136672714088805, -0.46346978787863635, 20963000000.0
-0.09199347319976507, -0.5213915342119572, -0.4645024833963997, 20968000000.0
-0.10745504102815472, -0.5355421207305376, -0.4650437259415115, 20973000000.0
-0.11048706862094736, -0.5306022898170927, -0.46519693027485765, 20978000000.0
-0.06119857320932709, -0.5411441940869879, -0.4649692315987414, 20983000000.0
-0.11772557126730437, -0.5483802538102149, -0.4648865731268709, 20988000000.0
-0.077409246011107, -0.5682967387155562, -0.46436829529703944, 20993000000.0
-0.08361883920888, -0.518359743199425, -0.4631329999498367, 20998000000.0
-0.10208268398675896, -0.49073370570897734, -0.4619838101950581, 21003000000.0
-0.10852848636261347, -0.5239169013668354, -0.4613572954567274, 21008000000.0
-0.06637443350763306, -0.5252097660363633, -0.4607094415975408, 21013000000.0
-0.16425857206162892, -0.5188950802125785, -0.4605019348112258, 21018000000.0
-0.12454986254975432, -0.5208608470960481, -0.4614248604307482, 21023000000.0
-0.08430964869505564, -0.5095223919005312, -0.46260930196633226, 21028000000.0
-0.06254788915372408, -0.5542487509680235, -0.46366125989534246, 21033000000.0
-0.09347561882352397, -0.5233686077944077, -0.4649852990549773, 21038000000.0
-0.10035323022965667, -0.5240754157923274, -0.4655319254368171, 21043000000.0
-0.0693855314609938, -0.5428847713776116, -0.4672610682140384, 21048000000.0
-0.0916089762205695, -0.532879158426707, -0.46817978536185895, 21053000000.0
-0.11644324870831554, -0.5283997084829697, -0.4690383026628732, 21058000000.0
-0.11709814534392743, -0.5442707755457695, -0.4695790416681767, 21063000000.0
-0.11781300450009777, -0.5298092934088855, -0.47041412182673836, 21068000000.0
-0.056765186876508465, -0.5460410132447685, -0.47092804158769924, 21073000000.0
-0.058295901090061, -0.5275577518545108, -0.47151116076814864, 21078000000.0
-0.008840487345946373, -0.567450378446837, -0.4720844325347828, 21083000000.0
-0.07601549342739478, -0.5356365468628086, -0.47263673774043147, 21088000000.0
-0.061380013605365755, -0.5621401733754351, -0.4733289978706306, 21093000000.0
-0.10142920732209482, -0.5540052360875928, -0.47426276109163934, 21098000000.0
-0.06698229697365718, -0.546802579329433, -0.4743144954749255, 21103000000.0
-0.15826655825526784, -0.43816076822615, -0.47614150960936025, 21108000000.0
0.0393473004468505, -0.5060165978587393, -0.4776225123664656, 21113000000.0
0.04923896152202525, -0.6350273995393371, -0.47867504574036457, 21118000000.0
-0.18714915766608403, -0.48050318066011005, -0.48005730062981644, 21123000000.0
-0.027522417568552268, -0.5727202949888387, -0.48241448190029873, 21128000000.0
-0.02858894607470339, -0.5595500072058762, -0.4836310972717101, 21133000000.0
-0.010336411013250866, -0.5272618365735053, -0.4852162006792114, 21138000000.0
0.15164422373925432, -0.6374172053000556, -0.48570380105030975, 21143000000.0
-0.009439491440970097, -0.5801551325285461, -0.48420971660617945, 21148000000.0
-0.10891021618354155, -0.5548810662014741, -0.48237646766775694, 21153000000.0
-0.17277114157004736, -0.5391901151288202, -0.4805133400143563, 21158000000.0
-0.13513067513640697, -0.5282532552807527, -0.478651565016827, 21163000000.0
-0.08547840946811465, -0.5538014015218672, -0.47738527136036535, 21168000000.0
-0.003755349383728779, -0.5199705213559548, -0.47660331700387165, 21173000000.0
-0.018282997669977395, -0.5378955517499977, -0.476337629047182, 21178000000.0
-0.017370715593531316, -0.5465185172979166, -0.47641652830207165, 21183000000.0
-0.09031711826325525, -0.5076068980587647, -0.47776091959130806, 21188000000.0
-0.07394543353462119, -0.5415513889799632, -0.47942674843089045, 21193000000.0
-0.06854970379062174, -0.5620737273205131, -0.4819375589479508, 21198000000.0
-0.08077263793637621, -0.5178264923828225, -0.48544324021790275, 21203000000.0
-0.03412672301418476, -0.5655594075807047, -0.488560862078426, 21208000000.0
-0.021362259861081218, -0.5297217858973234, -0.49152803613804147, 21213000000.0
-0.030000113143163656, -0.539743680501892, -0.49491962686009855, 21218000000.0
0.0006948426365627897, -0.5478053711580041, -0.49733634034975477, 21223000000.0
-0.018489777107230352, -0.5824732600197752, -0.4992654862239215, 21228000000.0
-0.006051619045279512, -0.550560670054027, -0.5012116012614679, 21233000000.0
0.017335515697906374, -0.5588722810052018, -0.5023029981026832, 21238000000.0
0.025039725399978528, -0.5434449233957555, -0.5025979138656845, 21243000000.0
0.030326044544139556, -0.5885513508034147, -0.5020909795985171, 21248000000.0
0.0019118688817005638, -0.5640256905931327, -0.501415684156365, 21253000000.0
0.009964432764266624, -0.5527266448642136, -0.5000156069246656, 21258000000.0
-0.015170968746892076, -0.5714185396306587, -0.49874364460268517, 21263000000.0
0.018466413839859336, -0.5432615162218433, -0.49678402493615076, 21268000000.0
0.007123251310595102, -0.5417450916815235, -0.4950848983607533, 21273000000.0
-0.0030433502049025517, -0.567036679286759, -0.49367572114085706, 21278000000.0
0.017295372896026763, -0.5570677520966929, -0.49139092073811097, 21283000000.0
-0.03783025202951678, -0.5418645526447514, -0.49087644761943033, 21288000000.0
-0.029579323667565223, -0.5597630285245766, -0.49083334426542363, 21293000000.0
-0.04362613557876246, -0.5943463376223405, -0.49148465093116583, 21298000000.0
-0.032192061203200804, -0.5450564254145728, -0.4932063593460118, 21303000000.0
0.04252546839259862, -0.5719351105504574, -0.4949398059020585, 21308000000.0
0.01683399487166126, -0.5507850181372077, -0.49716091541326546, 21313000000.0
0.029607828909684095, -0.563612011759466, -0.4991249342991412, 21318000000.0
0.017542825218173682, -0.5432163527944037, -0.5007937547186238, 21323000000.0
0.029570263939193046, -0.5674760597621784, -0.502841316321573, 21328000000.0
0.03265411067798435, -0.5455492461139873, -0.5043463156962257, 21333000000.0
0.055967715925357334, -0.5617073201067657, -0.5062499053391257, 21338000000.0
0.08035865194723052, -0.5644390628071735, -0.507077145903351, 21343000000.0
0.058381601854793276, -0.5495750069390825, -0.5082513744488592, 21348000000.0
0.04657928415764583, -0.5863688491328574, -0.5089951464233555, 21353000000.0
0.049323298013289496, -0.5722988473353549, -0.5090689964389771, 21358000000.0
0.0273446035533295, -0.5307727213098711, -0.5089608245256622, 21363000000.0
0.07238531976457606, -0.5525157109029192, -0.5086621519824183, 21368000000.0
0.04814522238238531, -0.564511221047466, -0.5079855729867501, 21373000000.0
0.07739646798210235, -0.5093743040640951, -0.5067076219281316, 21378000000.0
0.19718658100307795, -0.549997600964482, -0.5053314084639492, 21383000000.0
0.17947214359788222, -0.5233493404272195, -0.5020959319640139, 21388000000.0
0.1012043212292216, -0.5328049169958871, -0.49774941489210545, 21393000000.0
0.06244923620138085, -0.548081738350455, -0.49282176456893423, 21398000000.0
0.05402493480088278, -0.543060582476928, -0.48723894169213483, 21403000000.0
0.00993229105545864, -0.5531109024146551, -0.4816708955315845, 21408000000.0
0.03103159836849284, -0.5220102198560765, -0.4764722363291515, 21413000000.0
0.048342012963741396, -0.5040411542387795, -0.4720872018982269, 21418000000.0
0.011436247893865908, -0.5135412799147552, -0.4684716196519268, 21423000000.0
0.07416789860178376, -0.5172247061429761, -0.46562677169130984, 21428000000.0
0.04138249490932254, -0.5228601056605698, -0.4644579405570386, 21433000000.0
0.06615762818077167, -0.5381051844020497, -0.463741773949759, 21438000000.0
0.05231177398226347, -0.48961084795279775, -0.46473575601831646, 21443000000.0
0.06556979195562025, -0.5150132647951712, -0.4662375853069944, 21448000000.0
0.06472892471388221, -0.5018949586207129, -0.46879839852147354, 21453000000.0
0.07111431283204772, -0.49886311373100933, -0.47151795610394504, 21458000000.0
0.02373666829777934, -0.5284598022842362, -0.4750402290403192, 21463000000.0
0.07850884992956014, -0.5097716778670789, -0.4782402733764231, 21468000000.0
0.0883200826657059, -0.5224098324924045, -0.48151864988471627, 21473000000.0
0.04234035238248003, -0.5427788223522434, -0.4844827780702704, 21478000000.0
0.08936486491209106, -0.5451458691299264, -0.4866375158675843, 21483000000.0
0.04655706104447761, -0.5219283463833351, -0.48838068687500485, 21488000000.0
0.09240102501901482, -0.5474570896809466, -0.4901729004374505, 21493000000.0
0.08269900127654661, -0.5466750707957897, -0.4922326005544171, 21498000000.0
0.07992850630306002, -0.5384929331563377, -0.4935495650528089, 21503000000.0
0.038539694927035656, -0.5473759976923134, -0.49470681334094513, 21508000000.0
-0.10081815703972734, -0.5653303011295248, -0.49778296958475565, 21513000000.0
0.0044363279279042035, -0.5714455202253422, -0.5015848541583345, 21518000000.0
0.006892169129059281, -0.5604382010796418, -0.5067111830075852, 21523000000.0
0.03176633249052897, -0.5962245897512748, -0.5118926695567506, 21528000000.0
0.08299765411397254, -0.5652365361001133, -0.5184326394097999, 21533000000.0
0.10846798097330035, -0.609793836708684, -0.5242169630708264, 21538000000.0
0.1083892257290647, -0.5625467448791679, -0.5293601998431282, 21543000000.0
0.13929335601913434, -0.5943473600223129, -0.5342071390081189, 21548000000.0
0.1266121688869552, -0.594191079635243, -0.5375908554635144, 21553000000.0
0.16319664299463538, -0.6076293418184812, -0.540219160683612, 21558000000.0
0.127942673290736, -0.6165951282814056, -0.541938536973176, 21563000000.0
0.14795446610214064, -0.6333260696887273, -0.5415679454504984, 21568000000.0
0.14017481830166015, -0.6010844065588125, -0.5412307602745309, 21573000000.0
0.16081558843780308, -0.5817764643626738, -0.5390690121218134, 21578000000.0
0.13637132184392897, -0.5964970723334297, -0.5365997253539009, 21583000000.0
0.16500535854621629, -0.6112410739762467, -0.5332896352556398, 21588000000.0
0.14021812502934533, -0.6049789824882381, -0.5306054753979599, 21593000000.0
0.0943385237073599, -0.5684020697678556, -0.5287671826793922, 21598000000.0
0.0964726360577103, -0.5850251568558754, -0.5269387456562349, 21603000000.0
0.08952880451781406, -0.5951160691756767, -0.5260596997548798, 21608000000.0
0.10788572577725047, -0.6265119021594588, -0.5253319447215927, 21613000000.0
0.106577076424782, -0.5716505086631709, -0.5259193928729201, 21618000000.0
0.06983879215681993, -0.5963947433344047, -0.5265452576278515, 21623000000.0
0.08255200390528403, -0.6184184004949732, -0.5276875659158454, 21628000000.0
0.1033134654041759, -0.5858405460566164, -0.5291030896846242, 21633000000.0
0.10629018512844546, -0.5898959031850548, -0.5312663658059549, 21638000000.0
0.08039059395578016, -0.5713764245463175, -0.5330509043541778, 21643000000.0
0.09936882699342858, -0.5938640296970349, -0.534658959158944, 21648000000.0
0.13367668614890835, -0.5731407046050778, -0.5364484729656697, 21653000000.0
0.09237450977798622, -0.6128397209469121, -0.5373617477439674, 21658000000.0
0.11899005724043112, -0.5825675027308062, -0.5386906236565022, 21663000000.0
0.12623492145890422, -0.5983093623455503, -0.5399006708322429, 21668000000.0
0.09968881775857104, -0.5877867720035912, -0.5400555273696676, 21673000000.0
0.12008631643648855, -0.5984138543140646, -0.5399862433440256, 21678000000.0
0.13359080927791525, -0.6107750667613192, -0.5396980882210676, 21683000000.0
0.12283046017049318, -0.6012163619417056, -0.5394046055048717, 21688000000.0
0.1415300083025168, -0.6192574138040636, -0.538612740616825, 21693000000.0
0.09235633614666937, -0.5814616449048511, -0.5389503130947918, 21698000000.0
0.10192399840182828, -0.6002313592990696, -0.5388335934669836, 21703000000.0
0.09121229713632345, -0.5454014408713892, -0.539822639512917, 21708000000.0
0.10751308140576822, -0.6378995848682123, -0.5415996044951987, 21713000000.0
0.2758625618603048, -0.6242126130275087, -0.5421382112988038, 21718000000.0
0.16745291295196918, -0.6459978286178466, -0.5423938042146742, 21723000000.0
0.12675931596791434, -0.613232280095459, -0.5427524168595073, 21728000000.0
0.11281790614713078, -0.593311768383949, -0.5431429803874371, 21733000000.0
0.12161622484716743, -0.5923812208759618, -0.5437122519126484, 21738000000.0
0.13705500658329806, -0.6027867271306339, -0.5440475869611217, 21743000000.0
0.11764808419697369, -0.604561427513614, -0.5439718415491289, 21748000000.0
0.10502799176705215, -0.5745564712250201, -0.5441900283726093, 21753000000.0
0.1167187451990024, -0.6020482025969737, -0.5445771568619546, 21758000000.0
0.13888651758171397, -0.6049973779052374, -0.5448923224201203, 21763000000.0
0.1396538715001123, -0.6145235811332632, -0.5449327327281465, 21768000000.0
0.09499904905186321, -0.6113540218303539, -0.545350981008236, 21773000000.0
0.0817364496654712, -0.6115167937349841, -0.5456040717091313, 21778000000.0
0.14484718766446414, -0.5954726599544365, -0.5459917959046956, 21783000000.0
0.14175017055530528, -0.6069047813060885, -0.5459833425964378, 21788000000.0
0.12373191835845526, -0.5828769318245526, -0.5461193034924579, 21795000000.0
0.13924373061960107, -0.5884974728358787, -0.5475716057016912, 21800000000.0
0.12065429373020713, -0.5943895836366175, -0.5482026722863849, 21805000000.0
0.11094055580471532, -0.6120866206465732, -0.549096820704802, 21810000000.0
0.10366688695835495, -0.6076106818329672, -0.5500650903027937, 21815000000.0
0.13143591861643386, -0.6132663903347283, -0.5510364856342275, 21820000000.0
0.16174468225137573, -0.6056890447857051, -0.5516650276058128, 21825000000.0
0.12376812640635289, -0.6136116575220525, -0.5526354330190693, 21830000000.0
0.1391004459149615, -0.5976298065776393, -0.5535810401888838, 21835000000.0
0.16980983229367422, -0.6075306593413393, -0.5544173244499687, 21840000000.0
0.10045809052174451, -0.6322416517817121, -0.5551848358607603, 21845000000.0
0.12513758863079188, -0.5949807634356261, -0.5552917348762632, 21850000000.0
0.1300367168167728, -0.6025772383643713, -0.5561727678588133, 21855000000.0
0.1466068057189567, -0.591054127515388, -0.5566483535061442, 21860000000.0
0.11387896384645024, -0.6083768007214145, -0.5577398053776077, 21865000000.0
0.14525206674193147, -0.5810281463700847, -0.5589099210767466, 21870000000.0
0.14368631634946716, -0.6094895360111502, -0.5598503608842064, 21875000000.0
0.12934293355488108, -0.5847970878994282, -0.5610227780489959, 21881000000.0
0.08833697245462466, -0.6016277238412658, -0.562386815041349, 21886000000.0
0.13402679686449928, -0.6080161324984665, -0.5630815453392164, 21891000000.0
0.1314332313435003, -0.6097044653586512, -0.5639382672829943, 21896000000.0
0.14731483161339143, -0.6274627883823635, -0.5645466898009347, 21901000000.0
0.1112781422548841, -0.6093565514537903, -0.5653120675268922, 21906000000.0
0.13056859998780243, -0.6512266933483678, -0.565587278288522, 21911000000.0
0.14112600462076857, -0.5989945100344725, -0.5659400351119923, 21916000000.0
0.12045316817260052, -0.6239113136324921, -0.5666156406790381, 21921000000.0
0.1337990596244923, -0.6503689377062908, -0.5670855853434655, 21926000000.0
0.1176849879778338, -0.5820758372360393, -0.5679135193226718, 21931000000.0
0.11321544484917978, -0.5850589448704182, -0.5683561855439229, 21936000000.0
0.12680393169316245, -0.6313554443270749, -0.5684414406942384, 21941000000.0
0.10499571370170314, -0.6106554748491805, -0.569022388853207, 21946000000.0
0.11492682507352286, -0.6591981135101612, -0.5689893757124173, 21951000000.0
0.10140970297705545, -0.6303830156905479, -0.5691064594522536, 21956000000.0
0.09462265772705411, -0.6319476285499593, -0.5694023569496203, 21962000000.0
0.10721190519533548, -0.6169082402389008, -0.5698966078395814, 21967000000.0
0.059466238112931655, -0.5930107811984985, -0.5711042386928871, 21972000000.0
0.07493961000313448, -0.6044009174167063, -0.57261173736194, 21977000000.0
0.05961310130141623, -0.597296859823554, -0.5744353868418846, 21983000000.0
0.06063255881018243, -0.6051369644361047, -0.5767526511897039, 21991000000.0
0.1391666174731164, -0.6337768337257901, -0.5780259111459933, 21996000000.0
0.105171995974589, -0.6637999395482861, -0.579674907429343, 22001000000.0
0.1189341876597584, -0.6204662243913045, -0.5807748669968973, 22006000000.0
0.14387802343314238, -0.6527438871191885, -0.581861139562388, 22011000000.0
0.11768473009031502, -0.626579827016281, -0.5824026788788975, 22016000000.0
0.14269338921097866, -0.6257312833804658, -0.5825651554418174, 22021000000.0
0.141130907605504, -0.6130156420999857, -0.5825231564050921, 22026000000.0
0.11608463110851266, -0.6430838836497056, -0.5820826128413357, 22031000000.0
0.12149726587029004, -0.6248332713862217, -0.5818305458695152, 22036000000.0
0.08615451304504344, -0.6214585762425789, -0.5814041614953271, 22041000000.0
0.12628463296641929, -0.6283500796047248, -0.5811585559753775, 22046000000.0
0.08411507171270849, -0.5527450933011653, -0.5799264309869785, 22051000000.0
0.13597980011305166, -0.6098140125797801, -0.579541317190662, 22056000000.0
0.15024541007653394, -0.6251701992563183, -0.578888893785839, 22061000000.0
0.13252311010256823, -0.6275179584633027, -0.577901794088456, 22066000000.0
0.08589228147615129, -0.6279424841946053, -0.5782570488946756, 22071000000.0
0.0766150633018739, -0.5919123929845126, -0.5793787478843913, 22076000000.0
0.08288689703523978, -0.6088643367008376, -0.5796899838722401, 22081000000.0
0.0722915399378404, -0.6095545470052174, -0.5817724214292274, 22086000000.0
0.05519073305343487, -0.6336747503999489, -0.5835009836725067, 22091000000.0
0.07991593202727433, -0.6296169857580366, -0.5853828924696357, 22096000000.0
0.10807225000162946, -0.60914526083733, -0.5875999821552516, 22101000000.0
0.10718587478636778, -0.6504354850879379, -0.5888453089374617, 22106000000.0
0.11485024190695299, -0.6167613503649491, -0.5908047387630981, 22111000000.0
0.11727633789999681, -0.6411389139907777, -0.592316953723012, 22116000000.0
0.1267528125192211, -0.6336220433199196, -0.5933676069883239, 22121000000.0
0.1303985067219344, -0.6487463780326127, -0.5942110711055174, 22126000000.0
0.13474208722881617, -0.6667108669371659, -0.5942512794900878, 22131000000.0
0.11086711362933782, -0.6411067697409066, -0.5940319876199727, 22136000000.0
0.11285231306055879, -0.6391063962526486, -0.5937799479648863, 22141000000.0
0.1441433666927899, -0.6309604795916882, -0.5934770461057808, 22146000000.0
0.1330912784056851, -0.642971710174466, -0.5924412290779744, 22151000000.0
0.08760464529310445, -0.6586630598964135, -0.5914441543918372, 22156000000.0
0.114373449483272, -0.6185797198221314, -0.5901510080479133, 22161000000.0
0.08235155255194385, -0.5998459592804768, -0.5890659242844034, 22166000000.0
0.0768291199908637, -0.6500095166296771, -0.5883284741722421, 22171000000.0
0.08565857581148573, -0.6588941426815635, -0.5892026987868964, 22176000000.0
0.06275827443970217, -0.6628907202711587, -0.589456908304639, 22181000000.0
0.07770542754268794, -0.6422727524728211, -0.591001238363566, 22186000000.0
0.07764573389028179, -0.6500758739491562, -0.5929510528722568, 22191000000.0
0.0558036307390622, -0.6313431121390436, -0.5946679604115773, 22196000000.0
0.07249873819612764, -0.6601540683534634, -0.596527015549252, 22201000000.0
0.0885366929638786, -0.6409840514659044, -0.5985516406005792, 22206000000.0
0.07605655340043149, -0.6444483331765688, -0.6003258235895583, 22211000000.0
0.11185130459204325, -0.6449546478842489, -0.6017629511233265, 22216000000.0
0.09024001834062113, -0.6657526284442487, -0.6034813410636811, 22221000000.0
0.09610174605081487, -0.6554652266192882, -0.6043150734353383, 22226000000.0
0.07969198541656966, -0.6397036299245027, -0.6049975803723346, 22231000000.0
0.07990982792662107, -0.6747085839284943, -0.6055953638219245, 22236000000.0
0.10923390260305352, -0.6452400925406706, -0.6053725215943395, 22241000000.0
0.08427676614766683, -0.6466317527427531, -0.6051811722772524, 22246000000.0
0.11783993929960256, -0.6743105687927627, -0.604354797424055, 22251000000.0
0.07070194498898122, -0.654620801919117, -0.602705191576416, 22256000000.0
0.08485476689131068, -0.6604105187825905, -0.6019668250972174, 22261000000.0
0.07743912504215335, -0.6573820954167979, -0.6010488594291274, 22266000000.0
0.061910572690333995, -0.6285042251676266, -0.600013787716429, 22271000000.0
0.024368280509357017, -0.672900846616185, -0.5998556491453215, 22276000000.0
0.050619974238574374, -0.6263925730331364, -0.6000679489716166, 22281000000.0
0.0074639673733468345, -0.6475260659102476, -0.601256210962728, 22286000000.0
0.06260967936106873, -0.6598295626431276, -0.6026408890251131, 22291000000.0
0.03355421670455734, -0.6314474631826889, -0.6044238087062537, 22296000000.0
0.07069186791465246, -0.6665161023642432, -0.6060669491455357, 22301000000.0
0.05500815625700192, -0.6726215184778152, -0.6081777192086392, 22306000000.0
0.08980536567080274, -0.6598602962045876, -0.6098779986106325, 22311000000.0
0.0788555323219901, -0.6527059670516069, -0.6121217385845651, 22316000000.0
0.0542968849221247, -0.6852873038937273, -0.613260198664295, 22321000000.0
0.08131859789277888, -0.6741208867120482, -0.6145881856780009, 22326000000.0
0.0910801204198785, -0.6621404759254458, -0.6155396332899592, 22331000000.0
0.0946280253602038, -0.6743494258102183, -0.6159521808774315, 22336000000.0
0.05050062185929589, -0.6657320547626889, -0.6162203070756544, 22341000000.0
0.05075890291749954, -0.6423692714935741, -0.6171535617244528, 22346000000.0
0.052645638842717474, -0.6837470809897054, -0.6188068545596557, 22351000000.0
0.03343228078848602, -0.6601659461301517, -0.6197348558581566, 22356000000.0
0.09756620394159551, -0.6722198582768436, -0.6211515258706187, 22361000000.0
0.05150511562696992, -0.6893021807507682, -0.6217577705418745, 22366000000.0
0.08410882849751944, -0.6938866452440922, -0.6228633563163659, 22371000000.0
0.020041783635879995, -0.6902908213331289, -0.6232993618818126, 22376000000.0
0.0004180931344512362, -0.6794786072926889, -0.6238135079478829, 22381000000.0
0.1112697051555836, -0.6825261093090993, -0.6241423698995919, 22386000000.0
0.14889177740525333, -0.6720338212349382, -0.6239569391078564, 22391000000.0
0.09763129774684208, -0.6765879159813595, -0.623704118642925, 22396000000.0
0.06519120582564647, -0.6758464985503163, -0.6234787569697393, 22401000000.0
0.07814574173242704, -0.6888305028091485, -0.6225104399830164, 22406000000.0
0.050830742540937335, -0.6709580055929276, -0.6220755362492169, 22411000000.0
0.05742280280826209, -0.6763111531575111, -0.6214437612849144, 22416000000.0
0.047304177336036896, -0.675330895781186, -0.6208431925250136, 22421000000.0
0.0383901756003041, -0.6788744505469414, -0.619848146489969, 22426000000.0
0.027971199398361894, -0.6866034768393671, -0.6195841670889369, 22431000000.0
0.032588778777421376, -0.664715041928287, -0.6192604262969819, 22436000000.0
0.24635723765597944, -0.654966526302324, -0.6185480101501973, 22441000000.0
0.07316443403217962, -0.7043458087566115, -0.6165668717549845, 22446000000.0
0.037033257740141684, -0.670160462599325, -0.6145173992724181, 22451000000.0
0.06102366777595575, -0.6646737643909305, -0.6120564739656349, 22456000000.0
0.05807282579572857, -0.6705837880974151, -0.6100832461226894, 22461000000.0
0.06338127597285162, -0.6578371846845091, -0.6082991141444543, 22466000000.0
0.035625097067325404, -0.6624942994651545, -0.6060421467487445, 22471000000.0
0.04392701244047222, -0.7074904557434303, -0.6048773444385046, 22476000000.0
0.061526226340712455, -0.6842467721802339, -0.602696859135161, 22481000000.0
0.06371031210906833, -0.6978897283162986, -0.6010281048626073, 22486000000.0
0.049994339335799484, -0.6629158531327739, -0.599959674706975, 22491000000.0
0.06478854365466488, -0.6767130471519877, -0.5986263988108218, 22496000000.0
0.05945845593482243, -0.653156607059701, -0.59746043882748, 22501000000.0
0.04541166783860446, -0.6347819556802022, -0.5961815536678694, 22506000000.0
0.028941946572108832, -0.6918106718863878, -0.5954039792675017, 22511000000.0
0.030580061763350656, -0.6480404844316489, -0.5943718460119695, 22516000000.0
0.025174441109247946, -0.6707614288331418, -0.5936982193066673, 22521000000.0
0.029651860383332708, -0.6336162411148706, -0.5926726320745502, 22526000000.0
0.05336725818375802, -0.6332479548579907, -0.5922349696537043, 22531000000.0
0.007563559225595342, -0.6477639977148527, -0.5913146041280969, 22536000000.0
0.026117666070909207, -0.6316406065420251, -0.5907572178716356, 22541000000.0
0.0366247200435876, -0.6570335237786112, -0.5906745182438778, 22546000000.0
0.043459253033816855, -0.6721749799838136, -0.5911198269519943, 22551000000.0
0.02755431815938298, -0.6436443670201709, -0.5911023114226021, 22556000000.0
0.027447442601668877, -0.6385013917520926, -0.5915641366303852, 22561000000.0
0.024716801504289225, -0.6760540163766966, -0.5919368129423536, 22566000000.0
-0.009127277184078828, -0.6428688435880212, -0.5921587526016192, 22571000000.0
-0.00674740673602902, -0.6587106477844492, -0.592274076727665, 22576000000.0
0.0033274893564616045, -0.6334161658884659, -0.5925609126457619, 22581000000.0
0.01795766312087627, -0.6698725255121551, -0.5928670466915343, 22586000000.0
0.012167464689863393, -0.6445570632716856, -0.5925872261417742, 22591000000.0
0.042988848530619905, -0.6846688253686701, -0.5928453050627573, 22596000000.0
-0.010550758126351577, -0.6584228780893548, -0.5930777407870536, 22601000000.0
0.028692678043807252, -0.6934372189844131, -0.5928506577923265, 22606000000.0
0.01400488142550647, -0.6737737891171789, -0.5931040767412737, 22611000000.0
-0.013685964445019584, -0.6516514219912019, -0.5930812323070883, 22616000000.0
-0.009704771324579359, -0.6678344668637072, -0.5926082389371847, 22621000000.0
-0.019897281251596167, -0.6698947756760096, -0.5931204329655022, 22626000000.0
0.00830397176378811, -0.6700851691846087, -0.5933329174500598, 22631000000.0
-0.011060445269287235, -0.6601807256546709, -0.5932610541251403, 22636000000.0
0.008161609488947143, -0.6314816277280468, -0.5931848371597872, 22641000000.0
0.0077250589554173285, -0.683126023378035, -0.5936835883653018, 22646000000.0
0.015892080232327438, -0.6146467613670774, -0.5943512077774692, 22651000000.0
-0.021670005124268858, -0.7196194173738888, -0.5950679197203452, 22656000000.0
0.0174456468285753, -0.7174945286940148, -0.5959150104176414, 22661000000.0
-0.033602570797661005, -0.6778469926179033, -0.5963583722054515, 22666000000.0
-0.0055239946758085775, -0.6769478467763507, -0.5970001225955037, 22671000000.0
0.03841539908967809, -0.66600172770044, -0.5973821410552173, 22676000000.0
0.01002485612523917, -0.7149309018369026, -0.598423737135043, 22681000000.0
-0.016481805408404847, -0.6795605848765613, -0.5986135529866664, 22686000000.0
-0.031230879158145788, -0.6867567007117625, -0.5988860446487454, 22691000000.0
0.0044667270309525706, -0.685487058962942, -0.5992868670588278, 22696000000.0
-0.026946805405091718, -0.699498044199945, -0.599568904606575, 22701000000.0
-0.005022742520614857, -0.6627337010994638, -0.5998627940994982, 22706000000.0
0.004711591266093055, -0.6892001467174601, -0.6001375723640775, 22711000000.0
-0.023955570189786165, -0.6857886386151156, -0.6006495389915818, 22716000000.0
-0.025231616768375386, -0.6919744676571097, -0.6002908663720697, 22721000000.0
-0.03374019487334216, -0.688982621977267, -0.6008661673765996, 22726000000.0
-0.043776551480003846, -0.6599504813158051, -0.6006867149979689, 22731000000.0
-0.030831283376217905, -0.6858307797388296, -0.6010791116363152, 22736000000.0
-0.028811216379952084, -0.6671760684060491, -0.6011301060649099, 22741000000.0
-0.006731132139958122, -0.6354389037255925, -0.6013818552290046, 22746000000.0
0.13764485019203998, -0.7039663337478741, -0.6022467768074942, 22751000000.0
-0.12354162454090571, -0.6466468236279321, -0.6038961696810702, 22756000000.0
-0.12084656160666317, -0.7152643883199822, -0.606176870412373, 22761000000.0
0.15716583595290395, -0.6316695419296602, -0.6078412937440902, 22766000000.0
-0.06727743011233987, -0.7473959075844794, -0.6091763297879023, 22771000000.0
-0.10211494925971115, -0.6584468883907243, -0.6100390326392162, 22776000000.0
-0.08068776304661837, -0.6950046226147188, -0.6122311979833612, 22781000000.0
-0.014427009266184447, -0.6977852801001942, -0.6145253884676449, 22786000000.0
0.026106004258990546, -0.7130416662910632, -0.6160839111404853, 22791000000.0
0.004279149621929587, -0.6514550828232211, -0.6171682474274109, 22796000000.0
-0.042396680946801185, -0.7041069105783326, -0.6164935409203143, 22801000000.0
-0.04999137411970511, -0.6617335791931925, -0.6162470989069804, 22806000000.0
-0.1287563954201162, -0.7988616654711377, -0.6157528101522427, 22811000000.0
-0.0758461756260667, -0.7267292433457465, -0.6151517029911487, 22816000000.0
-0.06929941639799236, -0.6671173513811397, -0.6152504221479955, 22821000000.0
-0.07891174972889775, -0.7065546453449922, -0.6149918033024522, 22826000000.0
-0.044355892895092584, -0.716655033821477, -0.6145555444211805, 22831000000.0
-0.03843781006674859, -0.7470901342263634, -0.6144518445939062, 22836000000.0
-0.08849175211095861, -0.7191947567351371, -0.6142572990839139, 22841000000.0
-0.06794058805634498, -0.6890372298389416, -0.613948564547366, 22846000000.0
-0.03701260340059582, -0.7160144872758124, -0.6142456757216177, 22851000000.0
-0.04619338983962448, -0.7354892399198891, -0.6153058580543294, 22856000000.0
-0.03566311749841876, -0.689875741147565, -0.615807104422647, 22861000000.0
-0.053410566524171366, -0.7034479124545961, -0.6163024879884884, 22866000000.0
-0.05551904004928075, -0.7239033337092413, -0.6166559726643305, 22871000000.0
-0.09446171593477466, -0.7096233287216337, -0.6167990561504079, 22876000000.0
-0.049988351419398, -0.7058800334584328, -0.6174353073483683, 22881000000.0
-0.09526371445312817, -0.7085285737515138, -0.6175761699604477, 22886000000.0
-0.09595350318292385, -0.7274844234142642, -0.6180496696351258, 22891000000.0
-0.09508377113873595, -0.7094454421132979, -0.6182438133898621, 22896000000.0
-0.1098672730369576, -0.7056227720937928, -0.6185540439315221, 22901000000.0
-0.06111543580133434, -0.7012402495986071, -0.6189796367232856, 22906000000.0
-0.08141256285465955, -0.711804117775331, -0.6191625407454755, 22911000000.0
-0.06014526578088353, -0.6767181876503261, -0.6195980802481409, 22916000000.0
-0.039024560078215545, -0.7177693931870656, -0.6198287851676064, 22921000000.0
-0.07830309040490731, -0.696862140394326, -0.6199595026790788, 22926000000.0
-0.051069400918490465, -0.7572500301874454, -0.6200919968729578, 22931000000.0
-0.08817768433379386, -0.7275439608516254, -0.6205243191675784, 22936000000.0
-0.08773461874920974, -0.7281577908756401, -0.6205293676252727, 22941000000.0
-0.05609351803057845, -0.7260081677112206, -0.620785141672146, 22946000000.0
-0.08223271278294388, -0.7607596033478428, -0.621299719763852, 22951000000.0
-0.04561240335018428, -0.7329615841888297, -0.6219092304665126, 22956000000.0
-0.04566700768181374, -0.7338444102137608, -0.6227351572387465, 22961000000.0
-0.08914570973012816, -0.7001374707751656, -0.6234517509650865, 22966000000.0
-0.08897515253074872, -0.6996167656398244, -0.6244545082314764, 22971000000.0
-0.09417104070440414, -0.7345911466302685, -0.6249722459588537, 22976000000.0
-0.07966884585974868, -0.710099898112544, -0.6250848069679169, 22981000000.0
-0.11073817160126957, -0.7219138659436779, -0.6259176562232273, 22986000000.0
-0.06342442605013374, -0.7480461462943716, -0.6260881236849658, 22991000000.0
-0.07868829521224945, -0.7054911049499425, -0.6265888839880136, 22996000000.0
-0.062363297381127884, -0.7618835768384367, -0.6269557271815577, 23001000000.0
-0.09693576141506646, -0.7315060906700821, -0.6270279195341634, 23006000000.0
-0.045137253462400474, -0.7196560597283077, -0.6279624324856129, 23011000000.0
-0.08189757171986523, -0.6940938936864088, -0.628422116367768, 23016000000.0
-0.06939067377593208, -0.7633183232990391, -0.6285233680103299, 23021000000.0
-0.10585390057539533, -0.7568596318800144, -0.6287627299227834, 23026000000.0
-0.0865755249446261, -0.7408950436712666, -0.62956285999788, 23031000000.0
-0.0960458037324008, -0.745224338088491, -0.6300042028301198, 23036000000.0
-0.07223666668053567, -0.7179714960715471, -0.629974406148029, 23041000000.0
-0.10350708320221516, -0.7726607838501238, -0.630086349294945, 23046000000.0
-0.10600330393572688, -0.7615126560044325, -0.6301639827223648, 23051000000.0
-0.07146641189549434, -0.7064684605062744, -0.631175525256032, 23056000000.0
-0.08729281718017236, -0.6936498292475561, -0.6321192069279625, 23061000000.0
-0.06814255873106248, -0.7168718971120855, -0.6333230418857697, 23066000000.0
-0.05504211471129129, -0.7191222378185864, -0.6342921031129984, 23077000000.0
-0.08425129478776877, -0.7520435023328912, -0.634548193175453, 23082000000.0
-0.05585144040272352, -0.7585462477476936, -0.6350572363749379, 23087000000.0
-0.11992672691421932, -0.7317280994796447, -0.6357483939301574, 23092000000.0
-0.05617221402749174, -0.7756554657572183, -0.6361032832480888, 23097000000.0
-0.0597382080262985, -0.7264319229316231, -0.6362680490863242, 23102000000.0
-0.07619936104035502, -0.7277005404739609, -0.6369487082762297, 23107000000.0
-0.09663427340146091, -0.7400894791000519, -0.6373700509165627, 23112000000.0
-0.06875222863261306, -0.7550107616156999, -0.6376702210569559, 23117000000.0
-0.09613818244177269, -0.7183391239222386, -0.63819950630007, 23122000000.0
-0.09838250456371413, -0.7596982823021946, -0.6386156785802211, 23127000000.0
-0.09836217741782223, -0.7429515986545715, -0.6388319946163293, 23132000000.0
-0.11629450972992775, -0.7330235536805286, -0.6394738129229749, 23137000000.0
-0.09732002971420074, -0.7232484574574037, -0.6398175132932195, 23142000000.0
-0.11765424712208217, -0.7445212574266579, -0.6399544409332563, 23147000000.0
-0.06925149138161638, -0.7339127427147175, -0.6402558625328284, 23152000000.0
-0.08800157756921642, -0.7762963768053831, -0.6406203912458038, 23157000000.0
-0.05240586597753906, -0.7756526625676128, -0.6415452722811144, 23162000000.0
-0.04285550404558865, -0.7157907369722903, -0.6426539535960252, 23167000000.0
-0.05773356233645978, -0.7869915374800548, -0.6429906031148914, 23172000000.0
-0.10669170239250417, -0.7285253500836736, -0.6437500144625915, 23177000000.0
-0.06093571244811144, -0.7738341111116251, -0.6442444837912826, 23182000000.0
-0.08564019981406185, -0.7638611735332835, -0.6448144617291971, 23187000000.0
-0.08557812283810143, -0.7545541417536467, -0.6452642625530696, 23192000000.0
-0.08964285471204333, -0.7665360569237474, -0.6455573365839755, 23197000000.0
-0.07870950269533575, -0.7559915251998408, -0.6464323855198191, 23202000000.0
-0.08211322621306373, -0.7633613140949849, -0.6461758217754162, 23207000000.0
-0.10226241635710152, -0.7691938949711343, -0.6471918190347752, 23212000000.0
-0.06522809773926226, -0.7545599312097939, -0.6476553001746704, 23217000000.0
-0.03985340888744464, -0.7694911656155141, -0.6476384677364068, 23222000000.0
-0.0846175728866513, -0.7682095202214272, -0.6479968110997014, 23227000000.0
-0.08552112340087967, -0.7284896010972388, -0.6484903872669218, 23232000000.0
-0.06702830620884144, -0.7432528484800563, -0.6491939423509815, 23237000000.0
-0.07529546954932759, -0.7360016784052869, -0.6490859202856254, 23242000000.0
-0.05569441092661689, -0.7661854704051259, -0.6496308810583482, 23247000000.0
-0.10082139889060221, -0.7755891830602216, -0.6498313687985617, 23252000000.0
-0.062158514644610155, -0.765001998697081, -0.6499474881974444, 23257000000.0
0.00033763204670011343, -0.7690297015991643, -0.6510723739332165, 23262000000.0
-0.0572675160233833, -0.7456623144278504, -0.6518161079565136, 23267000000.0
-0.07390077902627847, -0.7710459276275538, -0.6525466506111494, 23272000000.0
-0.03173905090735821, -0.7398140964956532, -0.6534953294693907, 23277000000.0
-0.05176205730584837, -0.7828403958328034, -0.6539751663537644, 23282000000.0
-0.05054354525062274, -0.7724250327510767, -0.6544550980226845, 23287000000.0
-0.07787063066001321, -0.7362207302361397, -0.6550944176106085, 23292000000.0
-0.09715319535180056, -0.7600221669719861, -0.6547168975618272, 23297000000.0
-0.04196174357673157, -0.7622118289738037, -0.6552628214559809, 23302000000.0
-0.06422242552406834, -0.7407855642871735, -0.6558348541303202, 23307000000.0
-0.06757858089261151, -0.7625057589196708, -0.6558227604491711, 23312000000.0
-0.034339847603016595, -0.755291544410562, -0.6560974223299251, 23317000000.0
-0.044419209079696945, -0.7515144439878876, -0.6562227765661969, 23322000000.0
0.00022186988141959657, -0.7179182779757424, -0.6567417856376077, 23327000000.0
-0.014019804998737798, -0.7269560599816116, -0.6577410933032765, 23332000000.0
-0.025360770697897845, -0.726681381770669, -0.6588029194592344, 23337000000.0
-0.03828009182949776, -0.7474280232865232, -0.6592249386768717, 23342000000.0
-0.041161946261154915, -0.7360211916414473, -0.6597779954479746, 23347000000.0
-0.06839729567312552, -0.7733232221410655, -0.6604508360176338, 23352000000.0
-0.01468124944773826, -0.8005381925251244, -0.660940498101057, 23357000000.0
-0.08108468192033391, -0.6605682198573963, -0.661963306301967, 23362000000.0
0.02670661057452555, -0.9577563712702419, -0.6630365964805119, 23367000000.0
-0.07293938046923679, -0.7227887582733872, -0.6638792493243788, 23372000000.0
-0.08085732675594184, -0.6778614702288734, -0.6657286236424945, 23377000000.0
0.014240841212807574, -0.8736298196283901, -0.6661971888175162, 23382000000.0
-0.08334881020933899, -0.6407576908573264, -0.6671528406776764, 23387000000.0
-0.04251131922116903, -0.7894480106385113, -0.6689002809296022, 23392000000.0
0.02108161269420229, -0.8592799002510013, -0.6698177564615695, 23397000000.0
-0.06625788241213743, -0.6854214881365501, -0.6700821755106703, 23402000000.0
-0.016188354008097903, -0.7966230764844354, -0.6713870076564831, 23407000000.0
-0.016172524855278265, -0.7886820173627105, -0.6724581245363808, 23412000000.0
-0.01916861617407726, -0.7644181713434081, -0.6734718197165879, 23417000000.0
-0.023999780442189388, -0.793092836818613, -0.6742655210328278, 23422000000.0
-0.02934666521314835, -0.7692754502515281, -0.6750406194049472, 23427000000.0
0.010857861829975718, -0.7750065071851794, -0.6765753205427549, 23432000000.0
0.021980218613246425, -0.7956385225683509, -0.6781736626727646, 23437000000.0
-0.017887770330112122, -0.7548491308212684, -0.6796238736402815, 23442000000.0
-0.010180452820441735, -0.7924117386249879, -0.6807102761543156, 23447000000.0
0.00562931896086128, -0.7911957383317291, -0.6818719971379632, 23452000000.0
0.024464025003474478, -0.7694371326048497, -0.6830690405487807, 23457000000.0
0.0011415288362808728, -0.7557934016220484, -0.6837389693200531, 23462000000.0
-0.02564498372751288, -0.7934268755423103, -0.6842721098336046, 23467000000.0
-0.004230586411895708, -0.7481452450731777, -0.6847062244634659, 23472000000.0
-0.011251358175656184, -0.804385277817914, -0.6852201160740262, 23477000000.0
-0.010449289741809229, -0.7999048344653898, -0.6857869062008685, 23482000000.0
-0.003439749583719353, -0.7727645863638486, -0.6860608959761995, 23487000000.0
0.0015345642578397968, -0.7761951125474937, -0.6862074133970528, 23492000000.0
0.020458732128279866, -0.7737580611705461, -0.6868012175403106, 23497000000.0
0.005957968731954314, -0.7804469355479825, -0.6871481347819701, 23502000000.0
-0.02312176248373164, -0.7716907134081172, -0.6871230876018957, 23507000000.0
0.05495137482251623, -0.7928731311153845, -0.6877621113819885, 23512000000.0
0.04795420729052626, -0.793511750448166, -0.6881736258618191, 23517000000.0
0.019287273991011288, -0.8279926751796409, -0.6882846761724425, 23522000000.0
0.0004661153542697277, -0.7859850347761941, -0.6882870405609324, 23527000000.0
0.07264805632049215, -0.76467563538755, -0.689356217685388, 23532000000.0
0.028528536933997276, -0.8009325645486495, -0.6904457769475597, 23537000000.0
0.024493922043102776, -0.7842103670097186, -0.6914177182586543, 23542000000.0
0.045321985893111656, -0.8257422477814255, -0.6924547933134583, 23547000000.0
0.04302753091252085, -0.786833652815769, -0.6934990871914039, 23552000000.0
0.011396071364328079, -0.7763857421918451, -0.6939420838732892, 23557000000.0
0.03398187729489267, -0.7879551114236307, -0.6946954935711622, 23562000000.0
0.04385563387468794, -0.8045143407332677, -0.6951725154807431, 23567000000.0
0.014799593705266753, -0.834658734816834, -0.6954836151080325, 23572000000.0
0.007915828494539985, -0.8136408876597987, -0.6965368127227681, 23577000000.0
0.052406636081548996, -0.7962521298180788, -0.696825643760046, 23582000000.0
0.017339940513483774, -0.7976082463829316, -0.6976654625961952, 23587000000.0
0.035518496992552856, -0.7843999967960172, -0.6978859158992008, 23592000000.0
0.04275528131176304, -0.7982132799897735, -0.6981489833987032, 23597000000.0
0.061631046192650606, -0.7883649666361723, -0.6986092560671656, 23602000000.0
0.04876777125430283, -0.8190349274986061, -0.6987310941489829, 23607000000.0
0.049668924970096555, -0.7829426070836053, -0.699128038577854, 23612000000.0
0.061412896865340794, -0.7989351444217715, -0.6996908873102794, 23617000000.0
0.031572318672868284, -0.8168175652736639, -0.6994310132637622, 23622000000.0
0.053469556696657344, -0.7943885543943975, -0.6997433350178155, 23627000000.0
0.05309383973883921, -0.7812703705997303, -0.7002740619733294, 23632000000.0
0.05858370073992533, -0.7874850157897747, -0.7014454610204699, 23637000000.0
0.041565289100277875, -0.7890995761655802, -0.7023559652124598, 23642000000.0
0.0435059897393562, -0.8221242552997192, -0.7030766712428251, 23647000000.0
0.03615318586875528, -0.811791286988553, -0.704103074075894, 23652000000.0
0.045061828341277865, -0.8034858629633329, -0.7044781791363203, 23657000000.0
0.058092970437328084, -0.7783026576519211, -0.7054656363924199, 23662000000.0
0.04474422140175083, -0.8069419158087939, -0.7057012711926091, 23667000000.0
0.06021152245049864, -0.8012636879250906, -0.7059658705350116, 23672000000.0
0.0463322548054184, -0.8110585240378718, -0.7069268655439659, 23677000000.0
0.05271965286312668, -0.8014326882360446, -0.7074305560543009, 23682000000.0
0.060090913034099004, -0.8131256283718142, -0.7075946432081005, 23687000000.0
0.0684506732218752, -0.8184133407093725, -0.7084235707894125, 23692000000.0
0.0513793807779241, -0.8481194688466941, -0.7085335451776476, 23697000000.0
0.05267924080689275, -0.8284467483573638, -0.7087896729502214, 23702000000.0
0.05116361576911918, -0.8146338048744337, -0.7088040463776666, 23707000000.0
0.05929214595957709, -0.8338635027136825, -0.7091543168159129, 23712000000.0
0.08068811345989836, -0.791389462687607, -0.7095021224094262, 23717000000.0
0.06460784863367437, -0.8047562083755488, -0.7097717244268025, 23722000000.0
0.08167116350865071, -0.7796084505955272, -0.7099383249754213, 23727000000.0
0.03323555992059535, -0.8318495937157011, -0.7103791797014988, 23732000000.0
0.08436393083000773, -0.8188391237465914, -0.710893680599533, 23737000000.0
0.0835632578724601, -0.8008852081844665, -0.7117923392997705, 23742000000.0
0.06714646698961291, -0.8368124866609499, -0.7127854874939274, 23747000000.0
0.08864292693652787, -0.7536944868103467, -0.71345238144549, 23752000000.0
0.05484477532950682, -0.8077158859884446, -0.7136417163342692, 23757000000.0
0.07667272821962877, -0.7994537154705899, -0.7144519558529946, 23762000000.0
0.08046976165516638, -0.7900795919943765, -0.7149573460924615, 23767000000.0
0.05200250042855792, -0.8120233973580147, -0.7156279764453132, 23772000000.0
0.06854467623933068, -0.8188031567954788, -0.7158180109073619, 23777000000.0
0.08091038498752151, -0.8054710344330626, -0.7161199653312239, 23782000000.0
0.08686221188022755, -0.8014231151000684, -0.7167565539853229, 23787000000.0
0.07527962954702606, -0.8264052947779441, -0.7167692882293946, 23792000000.0
0.07167285355041694, -0.8454756686351808, -0.7168564059652587, 23797000000.0
0.08476939508650773, -0.8144757096430203, -0.7177833853403004, 23802000000.0
0.07155755883627252, -0.8142555935434774, -0.7182734735113423, 23807000000.0
0.0891159593093761, -0.8127385227171111, -0.7186775844403807, 23812000000.0
0.10916014308259521, -0.8085034821323109, -0.7186029200443462, 23817000000.0
0.08982297734791812, -0.8368696400935246, -0.718759184753373, 23825000000.0
0.07255654860711522, -0.8102106446972769, -0.7193290420393028, 23830000000.0
0.05870137648221397, -0.8123086333755357, -0.7196433652652544, 23835000000.0
0.12642926620828102, -0.8077881248332273, -0.720247352278538, 23840000000.0
0.11690458853004312, -0.7979803544923852, -0.7206933748348916, 23845000000.0
0.08163863848812065, -0.8274556259708428, -0.7217973632981719, 23850000000.0
0.09919003764408002, -0.8267823788968904, -0.7226372904360596, 23855000000.0
0.08098565886083774, -0.7943108443772792, -0.7228051824150226, 23860000000.0
0.04290451792418857, -0.8249124093250149, -0.7236192997330595, 23865000000.0
0.08583743805915409, -0.771467658186055, -0.723703488699146, 23870000000.0
0.08572254309844739, -0.7988015012600773, -0.7240483896950137, 23875000000.0
0.08137674826007901, -0.8491160659454026, -0.724645272978551, 23880000000.0
0.09007763323593686, -0.8351919228439652, -0.725153312304732, 23885000000.0
0.1241241351965234, -0.7890972692502632, -0.7256164543764966, 23890000000.0
0.09042016190577912, -0.8622847520529366, -0.7253952792761962, 23895000000.0
0.0738533790362082, -0.7978888002848218, -0.7256559980262653, 23900000000.0
0.10373440292642841, -0.803999231532878, -0.7263510783667488, 23905000000.0
0.1324146538216726, -0.8615097005814436, -0.7266135294529114, 23910000000.0
0.10184207794149557, -0.7923884945352331, -0.7269241422909544, 23915000000.0
0.09013408675546919, -0.8152631845844567, -0.7272322323517278, 23920000000.0
0.07410636674764519, -0.7878623561465442, -0.7270058137301821, 23925000000.0
0.12501039352658844, -0.8186070851650931, -0.7277198287559847, 23930000000.0
0.08526349335715044, -0.8328264525064255, -0.7276920985378367, 23935000000.0
0.09863946542509525, -0.8461368619167673, -0.7278936550060296, 23940000000.0
0.09815791066985854, -0.810013521624159, -0.7288625527472197, 23945000000.0
0.09977096467365354, -0.8251277282375146, -0.7297012014443581, 23950000000.0
0.10652456752916642, -0.8330410760968558, -0.7303690626674613, 23955000000.0
0.12210384972536889, -0.8126363637246979, -0.7307320476946333, 23960000000.0
0.07615076068317476, -0.811944048143379, -0.731462998881064, 23965000000.0
0.11162594469482173, -0.8127780990841391, -0.731469068897477, 23970000000.0
0.0826010373071634, -0.8401371086483863, -0.7325673890332638, 23975000000.0
0.10862033642098642, -0.7975622182305486, -0.7328696373370982, 23980000000.0
0.11470244126509238, -0.805891174550491, -0.7326613405802919, 23985000000.0
0.0951870137342534, -0.8323321408958215, -0.7334066689387894, 23990000000.0
0.07316426715561486, -0.8384445300001933, -0.7336812233419231, 23995000000.0
0.09347366545848769, -0.8260503550961792, -0.7344351339604202, 24000000000.0
0.08933276296404236, -0.8135870316182854, -0.7343594545383244, 24005000000.0
0.10605253798277721, -0.7941666570966874, -0.7349831038369024, 24010000000.0
0.08713079030659432, -0.8392610302727455, -0.7351704105507321, 24015000000.0
0.10424315864777065, -0.7844039945912858, -0.7354335617271448, 24020000000.0
0.10222471484837228, -0.8466093041979128, -0.7359119087083263, 24025000000.0
0.13966994283929599, -0.8237952131191265, -0.7364524547367114, 24030000000.0
0.1018604850555751, -0.8392034997046511, -0.7367133038935315, 24035000000.0
0.09487369080499403, -0.8367491161520612, -0.7376487485871319, 24040000000.0
0.1348864597503158, -0.8280011552093277, -0.7383686921676617, 24045000000.0
0.12307144569074169, -0.804623191069289, -0.7390744123866795, 24050000000.0
0.09448964522392378, -0.8665947144775241, -0.7401704621704813, 24055000000.0
0.09398520156242374, -0.8286114457198329, -0.7409836155065771, 24060000000.0
0.10239653907204947, -0.8572320346018284, -0.7418221803445096, 24065000000.0
0.08712053601360858, -0.8231376720751826, -0.7423969385279334, 24070000000.0
0.08810821168390576, -0.8589555437590547, -0.7428752559711906, 24075000000.0
0.08654585285601053, -0.8524702461599967, -0.7430333791846179, 24080000000.0
0.1281835379491441, -0.8318397854456105, -0.7436434822884987, 24085000000.0
0.1213016875805536, -0.8370143692408526, -0.7443316261881422, 24090000000.0
0.14356801360976792, -0.8307412457436711, -0.7444115649603699, 24095000000.0
0.1007768246348353, -0.8484068900187319, -0.7456740962255013, 24100000000.0
0.08763635802339646, -0.8370096590645251, -0.7455937245974247, 24105000000.0
0.1124809403211093, -0.8274012051024465, -0.7465953928487503, 24110000000.0
0.12069080137382802, -0.8269895614951661, -0.7481157137138971, 24115000000.0
0.0855697087219624, -0.8541453623055858, -0.7484837874593193, 24120000000.0
0.11814569081085806, -0.8310791228393487, -0.7496513581627187, 24125000000.0
0.11475320800494776, -0.8234097462177616, -0.7511208522945076, 24130000000.0
0.08649905557692673, -0.8660886292912812, -0.7517153944982835, 24135000000.0
0.11130213486562839, -0.8069136945345102, -0.7521939513869683, 24140000000.0
0.060242998225428786, -0.8606495913449909, -0.7529547958186213, 24145000000.0
0.11424110582968715, -0.8506609714604231, -0.7534570437032684, 24150000000.0
0.08721907083106725, -0.847260800300743, -0.7536775215647314, 24155000000.0
0.0859343441059731, -0.8092845881023988, -0.7535033928877344, 24160000000.0
0.11369994883552673, -0.8164894764491863, -0.7545855215643461, 24165000000.0
0.12009726048356614, -0.8355893915722605, -0.7546100048164157, 24170000000.0
0.11840418046100579, -0.8552999444633199, -0.7549770151624013, 24175000000.0
0.10230931937303422, -0.8278521028170936, -0.7551680510365245, 24180000000.0
0.12103979964727597, -0.8384048838435925, -0.7554023584293709, 24185000000.0
0.06590241041844468, -0.8357000359898652, -0.7548015433417806, 24190000000.0
0.09206506046783748, -0.8441022610904886, -0.7549325130496404, 24195000000.0
0.09352267116248555, -0.8325518780662898, -0.7553968970805689, 24200000000.0
0.11170364294344502, -0.8627074391928038, -0.755315664921133, 24205000000.0
0.0977160856505038, -0.8479298829335332, -0.7557072010816781, 24210000000.0
0.13245491658702488, -0.8771453821814278, -0.7569467949341415, 24215000000.0
0.11328243075849043, -0.8224326472334348, -0.7576556423430891, 24220000000.0
0.08367579134949679, -0.86000225296306, -0.7588278142294995, 24225000000.0
0.09518662945897853, -0.8511166798691859, -0.7593441602306591, 24230000000.0
0.10250934455043703, -0.8454666253367947, -0.7597020298036584, 24235000000.0
0.08814447649665581, -0.88177930823015, -0.760299614197545, 24240000000.0
0.12077502940294348, -0.8396231549455533, -0.7610446124875524, 24245000000.0
0.13434694259053212, -0.8487869194696496, -0.7613782260268557, 24250000000.0
0.08956328296567222, -0.8632601003445144, -0.7618440044947589, 24255000000.0
0.05101432852587655, -0.8435009579035844, -0.7620476697314006, 24260000000.0
0.08852059753962463, -0.8683056310799075, -0.7625990268648758, 24265000000.0
0.07786756781075359, -0.861940624922698, -0.7627828053540209, 24270000000.0
0.06508557418943642, -0.8427956069469379, -0.7631903527804221, 24275000000.0
0.06995550672427425, -0.8529534412896878, -0.7634320349471037, 24280000000.0
0.08784040345010304, -0.8371435628684504, -0.7635999124561158, 24285000000.0
0.10716065052431988, -0.8549821328632567, -0.7637055972269652, 24290000000.0
0.06859242745479951, -0.8634695632882328, -0.7636635197962693, 24295000000.0
0.05315269960530894, -0.8170891437485804, -0.7640629652507395, 24300000000.0
0.08525535215608115, -0.8253512758663262, -0.763960425286092, 24305000000.0
0.09495083300652328, -0.8913706034230741, -0.7642802107720014, 24310000000.0
0.10852668070507537, -0.8719307831531152, -0.7653714457139069, 24315000000.0
0.10162757721815174, -0.8726124908846864, -0.7663859153727295, 24320000000.0
0.13140379556455298, -0.8586529251277703, -0.7671493231472125, 24325000000.0
0.11634015049368818, -0.8814197269431746, -0.7685918406578414, 24330000000.0
0.08315582169392477, -0.8726313492915182, -0.7689400386551974, 24335000000.0
0.10229347251806478, -0.8582193324091871, -0.7699085774879975, 24340000000.0
0.1176571410414976, -0.8851801618577932, -0.7703973393761385, 24345000000.0
0.12528685612334148, -0.9021618520275901, -0.770380304017123, 24350000000.0
0.07467017041308129, -0.8632355550465307, -0.7716574355346723, 24355000000.0
0.09558041869456405, -0.9010110655772098, -0.7714581409364157, 24360000000.0
0.09097289724476311, -0.8702139265734297, -0.7721361642725919, 24365000000.0
0.09830782361850829, -0.9044513132395142, -0.7722020984360771, 24370000000.0
0.11927448783648884, -0.8707275090924028, -0.7725091090359711, 24375000000.0
0.06651124838488914, -0.849367959454264, -0.772721343082499, 24380000000.0
0.10555874648291304, -0.8357259404909966, -0.7727567442584432, 24385000000.0
0.07097876963309875, -0.8891210443761641, -0.7733133545266364, 24390000000.0
0.0945146162516534, -0.8720675059105322, -0.7729537324461309, 24395000000.0
0.0738836355733472, -0.8751280068884002, -0.7734007588083315, 24400000000.0
0.09689298792540985, -0.8794460041919308, -0.7732816061427534, 24405000000.0
0.09455979860582917, -0.8999143348855713, -0.7735703889821532, 24410000000.0
0.07582252445618325, -0.8830675920440099, -0.7742657452369618, 24415000000.0
0.10769346244477757, -0.872013873830155, -0.775171424329744, 24420000000.0
0.0993957667608443, -0.8523317688182513, -0.776313835254205, 24425000000.0
0.06607287953328135, -0.8626944980028621, -0.7770917930836084, 24430000000.0
0.0888111418279742, -0.9087748877423263, -0.7777596599946466, 24435000000.0
0.08350418889734729, -0.8944164442353443, -0.7784488272327823, 24440000000.0
0.07295895237242792, -0.8811465853546068, -0.7793153244480296, 24445000000.0
0.0723129981059288, -0.9076580656885249, -0.7794721607914462, 24450000000.0
0.0701898358685712, -0.8806772438700639, -0.7799937533480339, 24455000000.0
0.07952853591147017, -0.8945203291688032, -0.7807375181359921, 24460000000.0
0.08641426823607506, -0.8569014149427091, -0.7808060421101877, 24465000000.0
0.09155618018848254, -0.9088704993982709, -0.7811931064375286, 24470000000.0
0.0701794214910741, -0.8911373230460312, -0.7814137886325658, 24475000000.0
0.0728918371722365, -0.8812298938816442, -0.7817246143265311, 24480000000.0
0.09957448624855356, -0.8668918175027923, -0.7819778271762288, 24485000000.0
0.09110809861537805, -0.9044719981144165, -0.7823014705110011, 24490000000.0
0.0655895191913299, -0.8919450320314937, -0.7824725434749668, 24495000000.0
0.0687567930722547, -0.9035199162895473, -0.7823025869318724, 24500000000.0
0.08092376354472106, -0.8954714151897494, -0.7827329448066421, 24505000000.0
0.09397564778640355, -0.9005177132816317, -0.7826970455766896, 24510000000.0
0.06460029813475555, -0.864011561509844, -0.7831617082916141, 24515000000.0
0.07908362410916979, -0.8784778576904341, -0.7840083924491509, 24520000000.0
0.06107064256386215, -0.875291869032583, -0.7847708688869963, 24525000000.0
0.05668918138825148, -0.8903503319064411, -0.7858335552845545, 24530000000.0
0.03805266777509947, -0.8673184575617704, -0.7863150675055867, 24535000000.0
0.09933198914083777, -0.9041147093526195, -0.7870299190520487, 24540000000.0
0.0637773582307943, -0.8791361686783193, -0.7876281940177092, 24545000000.0
0.06842169489616137, -0.8864541714762607, -0.7886468008197887, 24550000000.0
0.08540516236177179, -0.878763432915989, -0.7891178406843763, 24555000000.0
0.07655861253764874, -0.8822641584374538, -0.7892728619852986, 24560000000.0
0.0501316315749298, -0.909805920740616, -0.7894834519478429, 24565000000.0
0.05869866267584633, -0.8616172977305916, -0.7896821371608888, 24570000000.0
0.0838191378782552, -0.9158796998256421, -0.7901338239784943, 24575000000.0
0.04295674235488049, -0.8766888423027739, -0.7911425569300491, 24580000000.0
0.07756141987256862, -0.876662216151105, -0.7910098261421026, 24585000000.0
0.05079675895105725, -0.9111138754814808, -0.7913077262632826, 24590000000.0
0.0559278853916469, -0.9116201282198491, -0.7914855392560539, 24595000000.0
0.04829106683422815, -0.9203666047322886, -0.7917261705992484, 24600000000.0
0.025983705580544296, -0.8883156076378904, -0.7919104924448693, 24605000000.0
0.051418439581727045, -0.9046022313331816, -0.7921381920005928, 24610000000.0
0.030485038542930405, -0.9230083180404131, -0.7921246182059861, 24615000000.0
0.061186335999766396, -0.9011468776501662, -0.7926015387680608, 24620000000.0
0.08340914670823711, -0.9137638298123649, -0.7941029444025431, 24625000000.0
0.050879044836664354, -0.921760169776384, -0.7943214885091181, 24630000000.0
0.05841377651222203, -0.9123611542249475, -0.7949404134529174, 24635000000.0
0.049677121173230254, -0.9355199285112054, -0.795830749486836, 24640000000.0
0.07180298227506711, -0.8940293991345581, -0.7965965381949717, 24645000000.0
0.04576029304021878, -0.9232183971580454, -0.7970644251978094, 24650000000.0
0.057194851464632324, -0.9225119679114343, -0.7973940370400722, 24655000000.0
0.054358915567932764, -0.9250936626703333, -0.7982062287338089, 24660000000.0
0.03129143502555086, -0.9225275839662755, -0.798179289804093, 24665000000.0
-0.09738435676600869, -0.8682133914478214, -0.8016160789059638, 24670000000.0
0.23842564902115812, -0.9430113520046398, -0.8025524247534237, 24675000000.0
0.021698822062987278, -0.9775301040032106, -0.8029975528174674, 24680000000.0
-0.5991876259914501, -0.8570392883002554, -0.8069050219944289, 24685000000.0
0.6757825121951162, -0.963232531889481, -0.807999707088528, 24690000000.0
-0.4787426290270945, -0.9899507943231797, -0.8088064397211344, 24695000000.0
-0.1073857502456966, -0.8703321929459195, -0.8119931814709261, 24700000000.0
0.6420487127137781, -0.927578248782719, -0.8144290772530647, 24705000000.0
0.07649286880865713, -0.9653494533868163, -0.8150002572783444, 24710000000.0
-0.6172398354439149, -0.953387248914889, -0.8179905955324467, 24715000000.0
0.5563412182539847, -0.8988246532690783, -0.8207406926885612, 24720000000.0
0.18060998815585577, -0.9445443250551079, -0.8217839082769516, 24725000000.0
-0.5942880538536183, -0.9368831146229463, -0.824675123246133, 24730000000.0
0.3880514630477721, -0.8642844582501216, -0.8286740063584026, 24735000000.0
0.28809825177664583, -1.0216127492250322, -0.829779470693252, 24740000000.0
-0.8169910045451878, -0.9949020746249335, -0.831324733806092, 24745000000.0
0.0012071027757629056, -0.8875846048501634, -0.8353088902320261, 24750000000.0
0.7614212747552278, -0.9257219036583736, -0.836626071664663, 24755000000.0
-0.48933623623480554, -1.0388780674878384, -0.8381701227196798, 24760000000.0
0.036111120844350836, -0.9211482823871474, -0.8408633851113043, 24765000000.0
0.7149579509573881, -1.0265801468735494, -0.8415044149918193, 24770000000.0
-0.7346546313912301, -0.960816328604575, -0.8421573486234509, 24775000000.0
0.016344760095392503, -0.9410603007627023, -0.8447227581878896, 24780000000.0
0.7203494704949398, -0.9743913743564468, -0.8461565512888662, 24785000000.0
-0.6086499462489423, -1.0154982776010493, -0.8466567866257492, 24790000000.0
-0.009622001705213906, -0.9353242814698194, -0.8487592468143167, 24795000000.0
0.6529189073108768, -0.983653090114224, -0.8508746234738944, 24800000000.0
-0.5027346903912914, -1.0057373405197176, -0.8509253840838671, 24805000000.0
-0.10482308262739203, -0.9453855821252847, -0.8535832286357414, 24810000000.0
0.6841429118933421, -0.9557028696172677, -0.8546981991411208, 24815000000.0
0.07904272162572928, -1.0167450300164056, -0.8541018038251813, 24820000000.0
-0.7355731700681928, -0.9757204827152718, -0.855876773375077, 24825000000.0
0.7724822572838284, -0.9841911471469611, -0.8558003482788762, 24830000000.0
-0.6264702216573927, -0.9704905774754125, -0.854339009044876, 24835000000.0
-0.12296640955185377, -0.9172103107848528, -0.8561157855214101, 24840000000.0
0.7960115862112592, -0.9808962731042643, -0.8551616121321506, 24845000000.0
0.008725820685579186, -1.004689549114989, -0.8529266307779406, 24850000000.0
-0.7897035658349235, -0.9672692659481186, -0.8544561789257267, 24855000000.0
0.8054811391045223, -1.0059829198350363, -0.8549081966952541, 24860000000.0
0.025642629400836708, -0.9838616847819611, -0.8529274746793569, 24865000000.0
-0.7910727750637767, -0.9705797049903431, -0.8519753225408783, 24870000000.0
0.6095951538248213, -0.9651679635730124, -0.8531427493758013, 24875000000.0
0.14265717448229243, -0.970278024999128, -0.8515071212296355, 24880000000.0
0.016049849708155765, -0.9573021096448678, -0.8494629537218369, 24885000000.0
-0.7505489063530758, -0.9158965241936804, -0.8496441328105576, 24890000000.0
0.7570780711181819, -0.9185197416626775, -0.8506353361200383, 24895000000.0
0.08912702458370589, -1.0300134771581757, -0.849629398053406, 24900000000.0
-0.05646880885849061, -0.989834014786571, -0.8486218583738685, 24905000000.0
0.08546751397183729, -0.9550591449109616, -0.8472673855824171, 24910000000.0
0.012149029094546295, -0.8999531478011268, -0.8452086402929911, 24915000000.0
-0.14911430553022578, -0.9822651276672518, -0.843404926853806, 24920000000.0
0.07893670997927553, -0.9369635979380704, -0.8414022685030728, 24925000000.0
-0.001150487570788783, -0.9116408037671365, -0.8399522285112683, 24930000000.0
0.015240947710251807, -0.9631875569868232, -0.8384163269323692, 24935000000.0
-0.012903409437757439, -0.996899877917693, -0.837431770309831, 24940000000.0
0.09839381919969091, -0.8932009077620437, -0.8359459996263887, 24945000000.0
-0.06522682456314867, -0.9672871111730685, -0.8346775140266293, 24950000000.0
-0.05895644591139573, -0.931854720888182, -0.8338919071132876, 24955000000.0
-0.052003793731675435, -0.9437169444662296, -0.8331615480131614, 24960000000.0
-0.1143815694138109, -0.9652931208606779, -0.8332108967234507, 24965000000.0
0.13947930986024193, -0.9733187625788511, -0.8328927632030091, 24970000000.0
0.05619594121136479, -0.8754193012694191, -0.8324027936725491, 24975000000.0
-0.10377330589353119, -0.91444391701114, -0.8315613173277442, 24980000000.0
-0.09639044538401093, -0.9630388574962984, -0.8311109352644113, 24985000000.0
-0.02283773437567901, -0.9338029259155987, -0.83171882034212, 24990000000.0
0.21738270154749043, -1.0987956425332461, -0.831530654937803, 24995000000.0
0.008264443836626199, -1.034469055837185, -0.8310948810399705, 25000000000.0
-0.09098450278731915, -0.9406303024038334, -0.8304155617827468, 25005000000.0
-0.18272329619663924, -0.8553281396644654, -0.8297597243973358, 25010000000.0
-0.13628976167839688, -0.8923034300360774, -0.8294718677537797, 25015000000.0
-0.07900327747475186, -0.9464621683087968, -0.8299821659870162, 25020000000.0
-0.03280113711500427, -0.9396211243719639, -0.8296223308547392, 25025000000.0
-0.014179884044463516, -0.9534861531744742, -0.8306399316114075, 25030000000.0
-0.012523763503752122, -0.9435813891142267, -0.8308486705526222, 25035000000.0
-0.01904951280185831, -0.9278700830677942, -0.8310167625312955, 25040000000.0
-0.023377311030400867, -0.9594566119869941, -0.8311195548801164, 25045000000.0
-0.025461798772343655, -0.9480835945454387, -0.8316845405247395, 25050000000.0
-0.05032889243027577, -0.9494435502049522, -0.831907452368048, 25055000000.0
-0.045936860164974676, -0.9562423134377114, -0.8319943905277088, 25060000000.0
-0.03543108623344828, -0.9502353458178097, -0.8321701565077945, 25065000000.0
-0.031578432297415075, -0.9313051970877244, -0.8324022729709838, 25070000000.0
-0.05494283995322523, -0.9498434406824435, -0.8330091291715457, 25075000000.0
-0.04823572280968431, -0.9634157521446471, -0.8331338984244377, 25080000000.0
-0.04874914417492053, -0.9557843272070558, -0.833839788753033, 25085000000.0
-0.04343911683688362, -0.9337778201798713, -0.8341830990582281, 25090000000.0
-0.035680250171179276, -0.9510396583270453, -0.8351750321969434, 25095000000.0
-0.016737391422149334, -0.9542177777731129, -0.8360794103803019, 25100000000.0
-0.017827419763443198, -0.9503370238491833, -0.8369104254911102, 25105000000.0
-0.0338547782441849, -0.9572817213848039, -0.8381485586657099, 25110000000.0
-0.020382447725028775, -0.9700953123424393, -0.8391761690107449, 25115000000.0
-0.04308612642314104, -0.9893084728976052, -0.8399022370876905, 25120000000.0
-0.01750176809226292, -0.9322209923530508, -0.840630532815844, 25125000000.0
-0.04255626940098446, -0.948241044002259, -0.8415598239393922, 25130000000.0
-0.0377996994182061, -0.9621224731108167, -0.8420904991062977, 25135000000.0
-0.04362271602303484, -0.9526004346482277, -0.8422617408919819, 25140000000.0
-0.05691621714020042, -0.9526093317033231, -0.8430331683714634, 25145000000.0
-0.05399177088947331, -0.947655978516858, -0.8435822106945781, 25150000000.0
-0.07025047465666913, -0.9952091596501312, -0.8442382647765239, 25155000000.0
-0.06352122249381623, -0.9433842756071713, -0.8441889475483162, 25160000000.0
-0.06010485059380929, -0.9483816734505831, -0.8449539047067065, 25165000000.0
-0.07693535957699298, -0.9406300291319887, -0.8451136046281562, 25170000000.0
-0.04876005968455369, -0.9675004221871433, -0.8452400499066685, 25175000000.0
-0.04419664055852501, -0.9804141359482375, -0.8456139909432168, 25180000000.0
-0.03872148958496138, -0.9757848330760697, -0.8458423704061651, 25185000000.0
